"","subjID","group","rt","category","choice","transition_new","tarresp","correcttarresp","trialnr","blocknr","phase","reward","congruency","payout1","payout2","payout3","payout4","totalpayout","stimulus","rtoutlier","centered_blocknr","log_rt"
"54","ph6mq3923gc950g3czaztw8431y6htv4","condrepetition",869,"nosm","animacy","repetition","k",1,1,1,"masked",0.05,"congruent",3.24,2.83,3.02,2.96,12.05,"<div style=""font-size:30px;"">syringe</div>",0,-1.52192540322581,6.76734312526539
"55","ph6mq3923gc950g3czaztw8431y6htv4","condrepetition",815,"lila","animacy","repetition","l",1,2,1,"masked",0.05,"congruent",3.24,2.83,3.02,2.96,12.05,"<div style=""font-size:30px;"">bear</div>",0,-1.52192540322581,6.70318811324086
"56","ph6mq3923gc950g3czaztw8431y6htv4","condrepetition",1065,"lism","animacy","repetition","l",1,3,1,"masked",0.05,"incongruent",3.24,2.83,3.02,2.96,12.05,"<div style=""font-size:30px;"">crab</div>",0,-1.52192540322581,6.97073007814353
"57","ph6mq3923gc950g3czaztw8431y6htv4","condrepetition",1071,"nosm","size","switch","s",1,4,1,"masked",0.01,"congruent",3.24,2.83,3.02,2.96,12.05,"<div style=""font-size:30px;"">lock</div>",0,-1.52192540322581,6.97634807044775
"58","ph6mq3923gc950g3czaztw8431y6htv4","condrepetition",1605,"nola","animacy","switch","k",1,5,1,"masked",0.01,"incongruent",3.24,2.83,3.02,2.96,12.05,"<div style=""font-size:30px;"">hut</div>",0,-1.52192540322581,7.38087903556412
"59","ph6mq3923gc950g3czaztw8431y6htv4","condrepetition",744,"lism","animacy","repetition","l",1,6,1,"masked",0.05,"incongruent",3.24,2.83,3.02,2.96,12.05,"<div style=""font-size:30px;"">carrot</div>",0,-1.52192540322581,6.61204103483309
"60","ph6mq3923gc950g3czaztw8431y6htv4","condrepetition",1351,"lism","animacy","repetition","l",1,7,1,"masked",0.05,"incongruent",3.24,2.83,3.02,2.96,12.05,"<div style=""font-size:30px;"">ant</div>",0,-1.52192540322581,7.2086003379602
"61","ph6mq3923gc950g3czaztw8431y6htv4","condrepetition",1067,"lism","animacy","repetition","l",1,8,1,"masked",0.05,"incongruent",3.24,2.83,3.02,2.96,12.05,"<div style=""font-size:30px;"">grasshopper</div>",0,-1.52192540322581,6.97260625130175
"62","ph6mq3923gc950g3czaztw8431y6htv4","condrepetition",654,"lila","animacy","repetition","l",1,9,1,"masked",0.05,"congruent",3.24,2.83,3.02,2.96,12.05,"<div style=""font-size:30px;"">camel</div>",0,-1.52192540322581,6.4831073514572
"63","ph6mq3923gc950g3czaztw8431y6htv4","condrepetition",803,"lism","animacy","repetition","l",1,10,1,"masked",0.05,"incongruent",3.24,2.83,3.02,2.96,12.05,"<div style=""font-size:30px;"">insect</div>",0,-1.52192540322581,6.68835471394676
"64","ph6mq3923gc950g3czaztw8431y6htv4","condrepetition",859,"lila","animacy","repetition","l",1,11,1,"masked",0.05,"congruent",3.24,2.83,3.02,2.96,12.05,"<div style=""font-size:30px;"">swan</div>",0,-1.52192540322581,6.75576892198425
"65","ph6mq3923gc950g3czaztw8431y6htv4","condrepetition",1373,"nosm","size","switch","s",1,12,1,"masked",0.05,"congruent",3.24,2.83,3.02,2.96,12.05,"<div style=""font-size:30px;"">cigar</div>",0,-1.52192540322581,7.22475340576797
"66","ph6mq3923gc950g3czaztw8431y6htv4","condrepetition",1618,"lila","size","repetition","d",1,13,1,"masked",0.05,"congruent",3.24,2.83,3.02,2.96,12.05,"<div style=""font-size:30px;"">shrub</div>",0,-1.52192540322581,7.38894609761844
"67","ph6mq3923gc950g3czaztw8431y6htv4","condrepetition",849,"nosm","animacy","switch","k",1,14,1,"masked",0.05,"congruent",3.24,2.83,3.02,2.96,12.05,"<div style=""font-size:30px;"">coin</div>",0,-1.52192540322581,6.74405918631135
"68","ph6mq3923gc950g3czaztw8431y6htv4","condrepetition",667,"lila","animacy","repetition","l",1,15,1,"masked",0.05,"congruent",3.24,2.83,3.02,2.96,12.05,"<div style=""font-size:30px;"">pony</div>",0,-1.52192540322581,6.50279004591562
"69","ph6mq3923gc950g3czaztw8431y6htv4","condrepetition",1055,"nosm","animacy","repetition","k",1,16,1,"masked",0.05,"congruent",3.24,2.83,3.02,2.96,12.05,"<div style=""font-size:30px;"">compass</div>",0,-1.52192540322581,6.96129604591017
"70","ph6mq3923gc950g3czaztw8431y6htv4","condrepetition",1024,"nosm","size","switch","s",1,17,1,"masked",0.05,"congruent",3.24,2.83,3.02,2.96,12.05,"<div style=""font-size:30px;"">bandage</div>",0,-1.52192540322581,6.93147180559945
"71","ph6mq3923gc950g3czaztw8431y6htv4","condrepetition",1769,"nola","size","repetition","d",1,18,1,"masked",0.05,"incongruent",3.24,2.83,3.02,2.96,12.05,"<div style=""font-size:30px;"">comet</div>",0,-1.52192540322581,7.47816969415979
"72","ph6mq3923gc950g3czaztw8431y6htv4","condrepetition",1475,"nola","animacy","switch","k",1,19,1,"masked",0.01,"incongruent",3.24,2.83,3.02,2.96,12.05,"<div style=""font-size:30px;"">surfboard</div>",0,-1.52192540322581,7.29641326877392
"73","ph6mq3923gc950g3czaztw8431y6htv4","condrepetition",949,"lila","animacy","repetition","l",1,20,1,"masked",0.05,"congruent",3.24,2.83,3.02,2.96,12.05,"<div style=""font-size:30px;"">wolverine</div>",0,-1.52192540322581,6.85540879860993
"74","ph6mq3923gc950g3czaztw8431y6htv4","condrepetition",1314,"nola","animacy","repetition","k",1,21,1,"masked",0.05,"incongruent",3.24,2.83,3.02,2.96,12.05,"<div style=""font-size:30px;"">bicycle</div>",0,-1.52192540322581,7.18083119904456
"75","ph6mq3923gc950g3czaztw8431y6htv4","condrepetition",1414,"nosm","size","switch","s",1,22,1,"masked",0.01,"congruent",3.24,2.83,3.02,2.96,12.05,"<div style=""font-size:30px;"">chalk</div>",0,-1.52192540322581,7.25417784645652
"77","ph6mq3923gc950g3czaztw8431y6htv4","condrepetition",1160,"lila","animacy","switch","l",1,24,1,"masked",0.05,"congruent",3.24,2.83,3.02,2.96,12.05,"<div style=""font-size:30px;"">wildebeest</div>",0,-1.52192540322581,7.05617528410041
"78","ph6mq3923gc950g3czaztw8431y6htv4","condrepetition",1200,"nola","animacy","repetition","k",1,25,1,"masked",0.05,"incongruent",3.24,2.83,3.02,2.96,12.05,"<div style=""font-size:30px;"">mannequin</div>",0,-1.52192540322581,7.09007683577609
"79","ph6mq3923gc950g3czaztw8431y6htv4","condrepetition",1171,"lism","animacy","repetition","l",1,26,1,"masked",0.05,"incongruent",3.24,2.83,3.02,2.96,12.05,"<div style=""font-size:30px;"">parsley</div>",0,-1.52192540322581,7.06561336359772
"80","ph6mq3923gc950g3czaztw8431y6htv4","condrepetition",803,"lism","animacy","repetition","l",1,27,1,"masked",0.01,"incongruent",3.24,2.83,3.02,2.96,12.05,"<div style=""font-size:30px;"">avocado</div>",0,-1.52192540322581,6.68835471394676
"82","ph6mq3923gc950g3czaztw8431y6htv4","condrepetition",993,"lism","animacy","switch","l",1,29,1,"masked",0.01,"incongruent",3.24,2.83,3.02,2.96,12.05,"<div style=""font-size:30px;"">dove</div>",0,-1.52192540322581,6.90073066404517
"84","ph6mq3923gc950g3czaztw8431y6htv4","condrepetition",1176,"lila","animacy","repetition","l",1,31,1,"masked",0.05,"congruent",3.24,2.83,3.02,2.96,12.05,"<div style=""font-size:30px;"">elm</div>",0,-1.52192540322581,7.06987412845857
"85","ph6mq3923gc950g3czaztw8431y6htv4","condrepetition",723,"lila","animacy","repetition","l",1,32,1,"masked",0.05,"congruent",3.24,2.83,3.02,2.96,12.05,"<div style=""font-size:30px;"">gorilla</div>",0,-1.52192540322581,6.58340922215876
"86","ph6mq3923gc950g3czaztw8431y6htv4","condrepetition",1020,"nosm","animacy","repetition","k",1,33,1,"masked",0.05,"congruent",3.24,2.83,3.02,2.96,12.05,"<div style=""font-size:30px;"">nickel</div>",0,-1.52192540322581,6.92755790627832
"87","ph6mq3923gc950g3czaztw8431y6htv4","condrepetition",1619,"nola","animacy","repetition","k",1,34,1,"masked",0.05,"incongruent",3.24,2.83,3.02,2.96,12.05,"<div style=""font-size:30px;"">chimney</div>",0,-1.52192540322581,7.38956395367764
"88","ph6mq3923gc950g3czaztw8431y6htv4","condrepetition",909,"lism","animacy","repetition","l",1,35,1,"masked",0.05,"incongruent",3.24,2.83,3.02,2.96,12.05,"<div style=""font-size:30px;"">goldfish</div>",0,-1.52192540322581,6.81234509417748
"89","ph6mq3923gc950g3czaztw8431y6htv4","condrepetition",866,"lila","animacy","repetition","l",1,36,1,"masked",0.05,"congruent",3.24,2.83,3.02,2.96,12.05,"<div style=""font-size:30px;"">hyena</div>",0,-1.52192540322581,6.76388490856244
"90","ph6mq3923gc950g3czaztw8431y6htv4","condrepetition",1541,"nola","animacy","repetition","k",1,37,1,"masked",0.05,"incongruent",3.24,2.83,3.02,2.96,12.05,"<div style=""font-size:30px;"">anchor</div>",0,-1.52192540322581,7.34018683532012
"91","ph6mq3923gc950g3czaztw8431y6htv4","condrepetition",1828,"nosm","size","switch","s",1,38,1,"masked",0.01,"congruent",3.24,2.83,3.02,2.96,12.05,"<div style=""font-size:30px;"">thimble</div>",0,-1.52192540322581,7.5109777520141
"134","ph6mq3923gc950g3czaztw8431y6htv4","condrepetition",711,"lila","animacy","switch","l",1,1,2,"masked",0.01,"congruent",3.24,2.83,3.02,2.96,12.05,"<div style=""font-size:30px;"">kangaroo</div>",0,-0.521925403225806,6.56667242980324
"135","ph6mq3923gc950g3czaztw8431y6htv4","condrepetition",1218,"lism","animacy","repetition","l",1,2,2,"masked",0.05,"incongruent",3.24,2.83,3.02,2.96,12.05,"<div style=""font-size:30px;"">mice</div>",0,-0.521925403225806,7.10496544826984
"136","ph6mq3923gc950g3czaztw8431y6htv4","condrepetition",917,"nola","size","switch","d",1,3,2,"masked",0.01,"incongruent",3.24,2.83,3.02,2.96,12.05,"<div style=""font-size:30px;"">oven</div>",0,-0.521925403225806,6.82110747225646
"137","ph6mq3923gc950g3czaztw8431y6htv4","condrepetition",1428,"nosm","animacy","switch","k",1,4,2,"masked",0.05,"congruent",3.24,2.83,3.02,2.96,12.05,"<div style=""font-size:30px;"">candle</div>",0,-0.521925403225806,7.26403014289953
"138","ph6mq3923gc950g3czaztw8431y6htv4","condrepetition",808,"lila","animacy","repetition","l",1,5,2,"masked",0.05,"congruent",3.24,2.83,3.02,2.96,12.05,"<div style=""font-size:30px;"">crocodile</div>",0,-0.521925403225806,6.69456205852109
"139","ph6mq3923gc950g3czaztw8431y6htv4","condrepetition",754,"lila","animacy","repetition","l",1,6,2,"masked",0.05,"congruent",3.24,2.83,3.02,2.96,12.05,"<div style=""font-size:30px;"">peacock</div>",0,-0.521925403225806,6.62539236800796
"140","ph6mq3923gc950g3czaztw8431y6htv4","condrepetition",987,"nola","animacy","repetition","k",1,7,2,"masked",0.05,"incongruent",3.24,2.83,3.02,2.96,12.05,"<div style=""font-size:30px;"">escalator</div>",0,-0.521925403225806,6.89467003943348
"141","ph6mq3923gc950g3czaztw8431y6htv4","condrepetition",638,"lila","animacy","repetition","l",1,8,2,"masked",0.05,"congruent",3.24,2.83,3.02,2.96,12.05,"<div style=""font-size:30px;"">cheetah</div>",0,-0.521925403225806,6.45833828334479
"142","ph6mq3923gc950g3czaztw8431y6htv4","condrepetition",644,"lila","animacy","repetition","l",1,9,2,"masked",0.05,"congruent",3.24,2.83,3.02,2.96,12.05,"<div style=""font-size:30px;"">dolphin</div>",0,-0.521925403225806,6.46769872610435
"143","ph6mq3923gc950g3czaztw8431y6htv4","condrepetition",937,"nola","animacy","repetition","k",1,10,2,"masked",0.05,"incongruent",3.24,2.83,3.02,2.96,12.05,"<div style=""font-size:30px;"">bathtub</div>",0,-0.521925403225806,6.84268328223842
"144","ph6mq3923gc950g3czaztw8431y6htv4","condrepetition",989,"nosm","animacy","repetition","k",1,11,2,"masked",0.05,"congruent",3.24,2.83,3.02,2.96,12.05,"<div style=""font-size:30px;"">handcuffs</div>",0,-0.521925403225806,6.89669433162271
"145","ph6mq3923gc950g3czaztw8431y6htv4","condrepetition",890,"nosm","animacy","repetition","k",1,12,2,"masked",0.05,"congruent",3.24,2.83,3.02,2.96,12.05,"<div style=""font-size:30px;"">diamond</div>",0,-0.521925403225806,6.79122146272619
"146","ph6mq3923gc950g3czaztw8431y6htv4","condrepetition",1018,"lism","animacy","repetition","l",1,13,2,"masked",0.05,"incongruent",3.24,2.83,3.02,2.96,12.05,"<div style=""font-size:30px;"">algae</div>",0,-0.521925403225806,6.92559519711047
"147","ph6mq3923gc950g3czaztw8431y6htv4","condrepetition",1326,"nosm","size","switch","s",1,14,2,"masked",0.01,"congruent",3.24,2.83,3.02,2.96,12.05,"<div style=""font-size:30px;"">pebble</div>",0,-0.521925403225806,7.18992217074581
"148","ph6mq3923gc950g3czaztw8431y6htv4","condrepetition",1250,"lism","animacy","switch","l",1,15,2,"masked",0.01,"incongruent",3.24,2.83,3.02,2.96,12.05,"<div style=""font-size:30px;"">rat</div>",0,-0.521925403225806,7.13089883029635
"149","ph6mq3923gc950g3czaztw8431y6htv4","condrepetition",915,"lila","animacy","repetition","l",1,16,2,"masked",0.01,"congruent",3.24,2.83,3.02,2.96,12.05,"<div style=""font-size:30px;"">anaconda</div>",0,-0.521925403225806,6.81892406527552
"150","ph6mq3923gc950g3czaztw8431y6htv4","condrepetition",719,"lila","animacy","repetition","l",1,17,2,"masked",0.05,"congruent",3.24,2.83,3.02,2.96,12.05,"<div style=""font-size:30px;"">coyote</div>",0,-0.521925403225806,6.57786135772105
"151","ph6mq3923gc950g3czaztw8431y6htv4","condrepetition",929,"lism","animacy","repetition","l",1,18,2,"masked",0.05,"incongruent",3.24,2.83,3.02,2.96,12.05,"<div style=""font-size:30px;"">moth</div>",0,-0.521925403225806,6.83410873881384
"152","ph6mq3923gc950g3czaztw8431y6htv4","condrepetition",896,"nosm","animacy","repetition","k",1,19,2,"masked",0.05,"congruent",3.24,2.83,3.02,2.96,12.05,"<div style=""font-size:30px;"">receipt</div>",0,-0.521925403225806,6.79794041297493
"155","ph6mq3923gc950g3czaztw8431y6htv4","condrepetition",1008,"lism","animacy","repetition","l",1,22,2,"masked",0.05,"incongruent",3.24,2.83,3.02,2.96,12.05,"<div style=""font-size:30px;"">spinach</div>",0,-0.521925403225806,6.91572344863131
"156","ph6mq3923gc950g3czaztw8431y6htv4","condrepetition",1777,"nosm","size","switch","s",1,23,2,"masked",0.05,"congruent",3.24,2.83,3.02,2.96,12.05,"<div style=""font-size:30px;"">softball</div>",0,-0.521925403225806,7.48268182815465
"157","ph6mq3923gc950g3czaztw8431y6htv4","condrepetition",880,"lism","animacy","switch","l",1,24,2,"masked",0.01,"incongruent",3.24,2.83,3.02,2.96,12.05,"<div style=""font-size:30px;"">rose</div>",0,-0.521925403225806,6.77992190747225
"158","ph6mq3923gc950g3czaztw8431y6htv4","condrepetition",1408,"nola","animacy","repetition","k",1,25,2,"masked",0.05,"incongruent",3.24,2.83,3.02,2.96,12.05,"<div style=""font-size:30px;"">cart</div>",0,-0.521925403225806,7.24992553671799
"159","ph6mq3923gc950g3czaztw8431y6htv4","condrepetition",1201,"nola","animacy","repetition","k",1,26,2,"masked",0.05,"incongruent",3.24,2.83,3.02,2.96,12.05,"<div style=""font-size:30px;"">fireplace</div>",0,-0.521925403225806,7.09090982207998
"160","ph6mq3923gc950g3czaztw8431y6htv4","condrepetition",732,"lism","animacy","repetition","l",1,27,2,"masked",0.05,"incongruent",3.24,2.83,3.02,2.96,12.05,"<div style=""font-size:30px;"">sardine</div>",0,-0.521925403225806,6.59578051396131
"161","ph6mq3923gc950g3czaztw8431y6htv4","condrepetition",915,"nosm","animacy","repetition","k",1,28,2,"masked",0.01,"congruent",3.24,2.83,3.02,2.96,12.05,"<div style=""font-size:30px;"">wrench</div>",0,-0.521925403225806,6.81892406527552
"162","ph6mq3923gc950g3czaztw8431y6htv4","condrepetition",1214,"lism","animacy","repetition","l",1,29,2,"masked",0.05,"incongruent",3.24,2.83,3.02,2.96,12.05,"<div style=""font-size:30px;"">grape</div>",0,-0.521925403225806,7.10167597161944
"163","ph6mq3923gc950g3czaztw8431y6htv4","condrepetition",836,"lism","animacy","repetition","l",1,30,2,"masked",0.05,"incongruent",3.24,2.83,3.02,2.96,12.05,"<div style=""font-size:30px;"">strawberry</div>",0,-0.521925403225806,6.7286286130847
"165","ph6mq3923gc950g3czaztw8431y6htv4","condrepetition",1242,"nola","size","switch","d",1,32,2,"masked",0.01,"incongruent",3.24,2.83,3.02,2.96,12.05,"<div style=""font-size:30px;"">motorcycle</div>",0,-0.521925403225806,7.12447826249342
"166","ph6mq3923gc950g3czaztw8431y6htv4","condrepetition",1130,"nola","size","repetition","d",1,33,2,"masked",0.05,"incongruent",3.24,2.83,3.02,2.96,12.05,"<div style=""font-size:30px;"">dungeon</div>",0,-0.521925403225806,7.02997291170639
"167","ph6mq3923gc950g3czaztw8431y6htv4","condrepetition",1536,"nola","animacy","switch","k",1,34,2,"masked",0.01,"incongruent",3.24,2.83,3.02,2.96,12.05,"<div style=""font-size:30px;"">locomotive</div>",0,-0.521925403225806,7.33693691370762
"168","ph6mq3923gc950g3czaztw8431y6htv4","condrepetition",730,"lila","animacy","repetition","l",1,35,2,"masked",0.05,"congruent",3.24,2.83,3.02,2.96,12.05,"<div style=""font-size:30px;"">walrus</div>",0,-0.521925403225806,6.59304453414244
"169","ph6mq3923gc950g3czaztw8431y6htv4","condrepetition",1009,"nosm","size","switch","s",1,36,2,"masked",0.01,"congruent",3.24,2.83,3.02,2.96,12.05,"<div style=""font-size:30px;"">pin</div>",0,-0.521925403225806,6.91671502035361
"170","ph6mq3923gc950g3czaztw8431y6htv4","condrepetition",887,"lila","animacy","switch","l",1,37,2,"masked",0.01,"congruent",3.24,2.83,3.02,2.96,12.05,"<div style=""font-size:30px;"">tree</div>",0,-0.521925403225806,6.78784498230958
"171","ph6mq3923gc950g3czaztw8431y6htv4","condrepetition",1185,"nola","animacy","repetition","k",1,38,2,"masked",0.05,"incongruent",3.24,2.83,3.02,2.96,12.05,"<div style=""font-size:30px;"">cab</div>",0,-0.521925403225806,7.07749805356923
"172","ph6mq3923gc950g3czaztw8431y6htv4","condrepetition",912,"lila","animacy","repetition","l",1,39,2,"masked",0.05,"congruent",3.24,2.83,3.02,2.96,12.05,"<div style=""font-size:30px;"">antelope</div>",0,-0.521925403225806,6.81563999007433
"214","ph6mq3923gc950g3czaztw8431y6htv4","condrepetition",1462,"nola","size","repetition","d",1,1,3,"masked",0.05,"incongruent",3.24,2.83,3.02,2.96,12.05,"<div style=""font-size:30px;"">jet</div>",0,0.478074596774194,7.28756064030972
"215","ph6mq3923gc950g3czaztw8431y6htv4","condrepetition",1285,"nosm","animacy","switch","k",1,2,3,"masked",0.01,"congruent",3.24,2.83,3.02,2.96,12.05,"<div style=""font-size:30px;"">staple</div>",0,0.478074596774194,7.15851399732932
"216","ph6mq3923gc950g3czaztw8431y6htv4","condrepetition",1387,"nosm","animacy","repetition","k",1,3,3,"masked",0.05,"congruent",3.24,2.83,3.02,2.96,12.05,"<div style=""font-size:30px;"">crayon</div>",0,0.478074596774194,7.23489842031483
"217","ph6mq3923gc950g3czaztw8431y6htv4","condrepetition",949,"lism","animacy","repetition","l",1,4,3,"masked",0.05,"incongruent",3.24,2.83,3.02,2.96,12.05,"<div style=""font-size:30px;"">tulip</div>",0,0.478074596774194,6.85540879860993
"218","ph6mq3923gc950g3czaztw8431y6htv4","condrepetition",1302,"nola","size","switch","d",1,5,3,"masked",0.01,"incongruent",3.24,2.83,3.02,2.96,12.05,"<div style=""font-size:30px;"">asteroid</div>",0,0.478074596774194,7.17165682276851
"219","ph6mq3923gc950g3czaztw8431y6htv4","condrepetition",1113,"nola","size","repetition","d",1,6,3,"masked",0.05,"incongruent",3.24,2.83,3.02,2.96,12.05,"<div style=""font-size:30px;"">tower</div>",0,0.478074596774194,7.01481435127554
"220","ph6mq3923gc950g3czaztw8431y6htv4","condrepetition",709,"lila","animacy","switch","l",1,7,3,"masked",0.01,"congruent",3.24,2.83,3.02,2.96,12.05,"<div style=""font-size:30px;"">elk</div>",0,0.478074596774194,6.56385552653213
"221","ph6mq3923gc950g3czaztw8431y6htv4","condrepetition",1159,"nosm","animacy","repetition","k",1,8,3,"masked",0.05,"congruent",3.24,2.83,3.02,2.96,12.05,"<div style=""font-size:30px;"">jewel</div>",0,0.478074596774194,7.05531284333975
"222","ph6mq3923gc950g3czaztw8431y6htv4","condrepetition",783,"lism","animacy","repetition","l",1,9,3,"masked",0.05,"incongruent",3.24,2.83,3.02,2.96,12.05,"<div style=""font-size:30px;"">lily</div>",0,0.478074596774194,6.6631326959908
"223","ph6mq3923gc950g3czaztw8431y6htv4","condrepetition",951,"lila","animacy","repetition","l",1,10,3,"masked",0.01,"congruent",3.24,2.83,3.02,2.96,12.05,"<div style=""font-size:30px;"">reindeer</div>",0,0.478074596774194,6.85751406254539
"224","ph6mq3923gc950g3czaztw8431y6htv4","condrepetition",988,"nosm","animacy","repetition","k",1,11,3,"masked",0.05,"congruent",3.24,2.83,3.02,2.96,12.05,"<div style=""font-size:30px;"">teapot</div>",0,0.478074596774194,6.89568269774787
"225","ph6mq3923gc950g3czaztw8431y6htv4","condrepetition",719,"lila","animacy","repetition","l",1,12,3,"masked",0.05,"congruent",3.24,2.83,3.02,2.96,12.05,"<div style=""font-size:30px;"">beaver</div>",0,0.478074596774194,6.57786135772105
"226","ph6mq3923gc950g3czaztw8431y6htv4","condrepetition",868,"lism","animacy","repetition","l",1,13,3,"masked",0.05,"incongruent",3.24,2.83,3.02,2.96,12.05,"<div style=""font-size:30px;"">fruit</div>",0,0.478074596774194,6.76619171466035
"227","ph6mq3923gc950g3czaztw8431y6htv4","condrepetition",1133,"nola","animacy","repetition","k",1,14,3,"masked",0.05,"incongruent",3.24,2.83,3.02,2.96,12.05,"<div style=""font-size:30px;"">shield</div>",0,0.478074596774194,7.03262426102801
"228","ph6mq3923gc950g3czaztw8431y6htv4","condrepetition",686,"lila","animacy","repetition","l",1,15,3,"masked",0.05,"congruent",3.24,2.83,3.02,2.96,12.05,"<div style=""font-size:30px;"">donkey</div>",0,0.478074596774194,6.53087762772588
"229","ph6mq3923gc950g3czaztw8431y6htv4","condrepetition",861,"lism","animacy","repetition","l",1,16,3,"masked",0.05,"incongruent",3.24,2.83,3.02,2.96,12.05,"<div style=""font-size:30px;"">rodent</div>",0,0.478074596774194,6.75809450442773
"230","ph6mq3923gc950g3czaztw8431y6htv4","condrepetition",669,"lila","animacy","repetition","l",1,17,3,"masked",0.05,"congruent",3.24,2.83,3.02,2.96,12.05,"<div style=""font-size:30px;"">alligator</div>",0,0.478074596774194,6.50578406012823
"231","ph6mq3923gc950g3czaztw8431y6htv4","condrepetition",861,"lism","animacy","repetition","l",1,18,3,"masked",0.05,"incongruent",3.24,2.83,3.02,2.96,12.05,"<div style=""font-size:30px;"">robin</div>",0,0.478074596774194,6.75809450442773
"232","ph6mq3923gc950g3czaztw8431y6htv4","condrepetition",978,"nola","animacy","repetition","k",1,19,3,"masked",0.05,"incongruent",3.24,2.83,3.02,2.96,12.05,"<div style=""font-size:30px;"">kite</div>",0,0.478074596774194,6.88550967003482
"233","ph6mq3923gc950g3czaztw8431y6htv4","condrepetition",859,"lila","animacy","repetition","l",1,20,3,"masked",0.05,"congruent",3.24,2.83,3.02,2.96,12.05,"<div style=""font-size:30px;"">aardvark</div>",0,0.478074596774194,6.75576892198425
"234","ph6mq3923gc950g3czaztw8431y6htv4","condrepetition",660,"lila","animacy","repetition","l",1,21,3,"masked",0.05,"congruent",3.24,2.83,3.02,2.96,12.05,"<div style=""font-size:30px;"">deer</div>",0,0.478074596774194,6.49223983502047
"235","ph6mq3923gc950g3czaztw8431y6htv4","condrepetition",721,"lila","animacy","repetition","l",1,22,3,"masked",0.05,"congruent",3.24,2.83,3.02,2.96,12.05,"<div style=""font-size:30px;"">panda</div>",0,0.478074596774194,6.58063913728495
"236","ph6mq3923gc950g3czaztw8431y6htv4","condrepetition",779,"nosm","size","switch","s",1,23,3,"masked",0.05,"congruent",3.24,2.83,3.02,2.96,12.05,"<div style=""font-size:30px;"">dice</div>",0,0.478074596774194,6.65801104587075
"237","ph6mq3923gc950g3czaztw8431y6htv4","condrepetition",1061,"nola","size","repetition","d",1,24,3,"masked",0.05,"incongruent",3.24,2.83,3.02,2.96,12.05,"<div style=""font-size:30px;"">iceberg</div>",0,0.478074596774194,6.96696713861398
"238","ph6mq3923gc950g3czaztw8431y6htv4","condrepetition",794,"nola","size","repetition","d",1,25,3,"masked",0.05,"incongruent",3.24,2.83,3.02,2.96,12.05,"<div style=""font-size:30px;"">yacht</div>",0,0.478074596774194,6.67708346124714
"239","ph6mq3923gc950g3czaztw8431y6htv4","condrepetition",1581,"nosm","size","repetition","s",1,26,3,"masked",0.05,"congruent",3.24,2.83,3.02,2.96,12.05,"<div style=""font-size:30px;"">emerald</div>",0,0.478074596774194,7.36581283720947
"240","ph6mq3923gc950g3czaztw8431y6htv4","condrepetition",735,"lism","animacy","switch","l",1,27,3,"masked",0.01,"incongruent",3.24,2.83,3.02,2.96,12.05,"<div style=""font-size:30px;"">worm</div>",0,0.478074596774194,6.59987049921284
"241","ph6mq3923gc950g3czaztw8431y6htv4","condrepetition",927,"lism","animacy","repetition","l",1,28,3,"masked",0.05,"incongruent",3.24,2.83,3.02,2.96,12.05,"<div style=""font-size:30px;"">cockatoo</div>",0,0.478074596774194,6.83195356556585
"242","ph6mq3923gc950g3czaztw8431y6htv4","condrepetition",686,"lila","animacy","repetition","l",1,29,3,"masked",0.05,"congruent",3.24,2.83,3.02,2.96,12.05,"<div style=""font-size:30px;"">zebra</div>",0,0.478074596774194,6.53087762772588
"243","ph6mq3923gc950g3czaztw8431y6htv4","condrepetition",1400,"nola","animacy","repetition","k",1,30,3,"masked",0.05,"incongruent",3.24,2.83,3.02,2.96,12.05,"<div style=""font-size:30px;"">limousine</div>",0,0.478074596774194,7.24422751560335
"244","ph6mq3923gc950g3czaztw8431y6htv4","condrepetition",1545,"nola","size","switch","d",1,31,3,"masked",0.05,"incongruent",3.24,2.83,3.02,2.96,12.05,"<div style=""font-size:30px;"">tomb</div>",0,0.478074596774194,7.34277918933185
"245","ph6mq3923gc950g3czaztw8431y6htv4","condrepetition",1588,"nosm","animacy","switch","k",1,32,3,"masked",0.01,"congruent",3.24,2.83,3.02,2.96,12.05,"<div style=""font-size:30px;"">sandal</div>",0,0.478074596774194,7.37023064180708
"246","ph6mq3923gc950g3czaztw8431y6htv4","condrepetition",816,"lism","animacy","repetition","l",1,33,3,"masked",0.05,"incongruent",3.24,2.83,3.02,2.96,12.05,"<div style=""font-size:30px;"">radish</div>",0,0.478074596774194,6.70441435496411
"247","ph6mq3923gc950g3czaztw8431y6htv4","condrepetition",762,"lila","animacy","repetition","l",1,34,3,"masked",0.05,"congruent",3.24,2.83,3.02,2.96,12.05,"<div style=""font-size:30px;"">hawk</div>",0,0.478074596774194,6.63594655568665
"248","ph6mq3923gc950g3czaztw8431y6htv4","condrepetition",1398,"nola","animacy","repetition","k",1,35,3,"masked",0.05,"incongruent",3.24,2.83,3.02,2.96,12.05,"<div style=""font-size:30px;"">castle</div>",0,0.478074596774194,7.24279792279376
"249","ph6mq3923gc950g3czaztw8431y6htv4","condrepetition",1079,"nosm","animacy","repetition","k",1,36,3,"masked",0.05,"congruent",3.24,2.83,3.02,2.96,12.05,"<div style=""font-size:30px;"">shoe</div>",0,0.478074596774194,6.98378996525813
"250","ph6mq3923gc950g3czaztw8431y6htv4","condrepetition",757,"lism","animacy","repetition","l",1,37,3,"masked",0.05,"incongruent",3.24,2.83,3.02,2.96,12.05,"<div style=""font-size:30px;"">hornet</div>",0,0.478074596774194,6.62936325343745
"251","ph6mq3923gc950g3czaztw8431y6htv4","condrepetition",1436,"lism","size","switch","s",1,38,3,"masked",0.01,"incongruent",3.24,2.83,3.02,2.96,12.05,"<div style=""font-size:30px;"">cabbage</div>",0,0.478074596774194,7.26961674960817
"252","ph6mq3923gc950g3czaztw8431y6htv4","condrepetition",1288,"nosm","size","repetition","s",1,39,3,"masked",0.05,"congruent",3.24,2.83,3.02,2.96,12.05,"<div style=""font-size:30px;"">harmonica</div>",0,0.478074596774194,7.1608459066643
"295","ph6mq3923gc950g3czaztw8431y6htv4","condrepetition",1552,"lism","animacy","switch","l",1,2,4,"masked",0.01,"incongruent",3.24,2.83,3.02,2.96,12.05,"<div style=""font-size:30px;"">bean</div>",0,1.47807459677419,7.34729970074316
"296","ph6mq3923gc950g3czaztw8431y6htv4","condrepetition",830,"lism","animacy","repetition","l",1,3,4,"masked",0.05,"incongruent",3.24,2.83,3.02,2.96,12.05,"<div style=""font-size:30px;"">bug</div>",0,1.47807459677419,6.72142570079064
"297","ph6mq3923gc950g3czaztw8431y6htv4","condrepetition",1255,"nola","size","switch","d",1,4,4,"masked",0.01,"incongruent",3.24,2.83,3.02,2.96,12.05,"<div style=""font-size:30px;"">rowboat</div>",0,1.47807459677419,7.13489085156588
"298","ph6mq3923gc950g3czaztw8431y6htv4","condrepetition",1343,"nola","animacy","switch","k",1,5,4,"masked",0.01,"incongruent",3.24,2.83,3.02,2.96,12.05,"<div style=""font-size:30px;"">mattress</div>",0,1.47807459677419,7.20266119652324
"299","ph6mq3923gc950g3czaztw8431y6htv4","condrepetition",744,"lila","animacy","repetition","l",1,6,4,"masked",0.05,"congruent",3.24,2.83,3.02,2.96,12.05,"<div style=""font-size:30px;"">lion</div>",0,1.47807459677419,6.61204103483309
"300","ph6mq3923gc950g3czaztw8431y6htv4","condrepetition",1076,"lism","animacy","repetition","l",1,7,4,"masked",0.05,"incongruent",3.24,2.83,3.02,2.96,12.05,"<div style=""font-size:30px;"">peach</div>",0,1.47807459677419,6.98100574072173
"301","ph6mq3923gc950g3czaztw8431y6htv4","condrepetition",1003,"lism","animacy","repetition","l",1,8,4,"masked",0.05,"incongruent",3.24,2.83,3.02,2.96,12.05,"<div style=""font-size:30px;"">newt</div>",0,1.47807459677419,6.91075078796194
"302","ph6mq3923gc950g3czaztw8431y6htv4","condrepetition",1179,"nola","animacy","repetition","k",1,9,4,"masked",0.05,"incongruent",3.24,2.83,3.02,2.96,12.05,"<div style=""font-size:30px;"">luggage</div>",0,1.47807459677419,7.07242190053737
"303","ph6mq3923gc950g3czaztw8431y6htv4","condrepetition",1178,"nosm","animacy","repetition","k",1,10,4,"masked",0.05,"congruent",3.24,2.83,3.02,2.96,12.05,"<div style=""font-size:30px;"">ashtray</div>",0,1.47807459677419,7.07157336421153
"304","ph6mq3923gc950g3czaztw8431y6htv4","condrepetition",1681,"nola","size","switch","d",1,11,4,"masked",0.05,"incongruent",3.24,2.83,3.02,2.96,12.05,"<div style=""font-size:30px;"">igloo</div>",0,1.47807459677419,7.42714413340862
"305","ph6mq3923gc950g3czaztw8431y6htv4","condrepetition",1472,"nosm","size","repetition","s",1,12,4,"masked",0.05,"congruent",3.24,2.83,3.02,2.96,12.05,"<div style=""font-size:30px;"">napkin</div>",0,1.47807459677419,7.29437729928882
"306","ph6mq3923gc950g3czaztw8431y6htv4","condrepetition",1109,"nola","size","repetition","d",1,13,4,"masked",0.05,"incongruent",3.24,2.83,3.02,2.96,12.05,"<div style=""font-size:30px;"">ferry</div>",0,1.47807459677419,7.01121398735037
"307","ph6mq3923gc950g3czaztw8431y6htv4","condrepetition",795,"lila","animacy","switch","l",1,14,4,"masked",0.01,"congruent",3.24,2.83,3.02,2.96,12.05,"<div style=""font-size:30px;"">bobcat</div>",0,1.47807459677419,6.67834211465433
"308","ph6mq3923gc950g3czaztw8431y6htv4","condrepetition",671,"lila","animacy","repetition","l",1,15,4,"masked",0.05,"congruent",3.24,2.83,3.02,2.96,12.05,"<div style=""font-size:30px;"">monkey</div>",0,1.47807459677419,6.50876913697168
"309","ph6mq3923gc950g3czaztw8431y6htv4","condrepetition",770,"lism","animacy","repetition","l",1,16,4,"masked",0.05,"incongruent",3.24,2.83,3.02,2.96,12.05,"<div style=""font-size:30px;"">bacteria</div>",0,1.47807459677419,6.64639051484773
"310","ph6mq3923gc950g3czaztw8431y6htv4","condrepetition",1096,"lila","animacy","repetition","l",1,17,4,"masked",0.05,"congruent",3.24,2.83,3.02,2.96,12.05,"<div style=""font-size:30px;"">maple</div>",0,1.47807459677419,6.99942246750796
"311","ph6mq3923gc950g3czaztw8431y6htv4","condrepetition",642,"lism","animacy","repetition","l",1,18,4,"masked",0.05,"incongruent",3.24,2.83,3.02,2.96,12.05,"<div style=""font-size:30px;"">cherry</div>",0,1.47807459677419,6.46458830368996
"312","ph6mq3923gc950g3czaztw8431y6htv4","condrepetition",835,"lism","animacy","repetition","l",1,19,4,"masked",0.05,"incongruent",3.24,2.83,3.02,2.96,12.05,"<div style=""font-size:30px;"">butterfly</div>",0,1.47807459677419,6.72743172485086
"313","ph6mq3923gc950g3czaztw8431y6htv4","condrepetition",1071,"nola","animacy","repetition","k",1,20,4,"masked",0.01,"incongruent",3.24,2.83,3.02,2.96,12.05,"<div style=""font-size:30px;"">motel</div>",0,1.47807459677419,6.97634807044775
"314","ph6mq3923gc950g3czaztw8431y6htv4","condrepetition",764,"lila","animacy","repetition","l",1,21,4,"masked",0.05,"congruent",3.24,2.83,3.02,2.96,12.05,"<div style=""font-size:30px;"">eagle</div>",0,1.47807459677419,6.63856778916652
"315","ph6mq3923gc950g3czaztw8431y6htv4","condrepetition",962,"nosm","size","switch","s",1,22,4,"masked",0.01,"congruent",3.24,2.83,3.02,2.96,12.05,"<div style=""font-size:30px;"">ruby</div>",0,1.47807459677419,6.86901445066571
"316","ph6mq3923gc950g3czaztw8431y6htv4","condrepetition",914,"lila","size","repetition","d",1,23,4,"masked",0.05,"congruent",3.24,2.83,3.02,2.96,12.05,"<div style=""font-size:30px;"">giraffe</div>",0,1.47807459677419,6.81783057145415
"317","ph6mq3923gc950g3czaztw8431y6htv4","condrepetition",892,"nola","size","repetition","d",1,24,4,"masked",0.05,"incongruent",3.24,2.83,3.02,2.96,12.05,"<div style=""font-size:30px;"">garage</div>",0,1.47807459677419,6.79346613258001
"318","ph6mq3923gc950g3czaztw8431y6htv4","condrepetition",906,"lism","animacy","switch","l",1,25,4,"masked",0.05,"incongruent",3.24,2.83,3.02,2.96,12.05,"<div style=""font-size:30px;"">apple</div>",0,1.47807459677419,6.80903930604298
"319","ph6mq3923gc950g3czaztw8431y6htv4","condrepetition",914,"nosm","size","switch","s",1,26,4,"masked",0.01,"congruent",3.24,2.83,3.02,2.96,12.05,"<div style=""font-size:30px;"">cassette</div>",0,1.47807459677419,6.81783057145415
"320","ph6mq3923gc950g3czaztw8431y6htv4","condrepetition",1179,"nola","animacy","switch","k",1,27,4,"masked",0.01,"incongruent",3.24,2.83,3.02,2.96,12.05,"<div style=""font-size:30px;"">saxophone</div>",0,1.47807459677419,7.07242190053737
"321","ph6mq3923gc950g3czaztw8431y6htv4","condrepetition",830,"lila","animacy","repetition","l",1,28,4,"masked",0.05,"congruent",3.24,2.83,3.02,2.96,12.05,"<div style=""font-size:30px;"">ape</div>",0,1.47807459677419,6.72142570079064
"322","ph6mq3923gc950g3czaztw8431y6htv4","condrepetition",1119,"nosm","animacy","repetition","k",1,29,4,"masked",0.05,"congruent",3.24,2.83,3.02,2.96,12.05,"<div style=""font-size:30px;"">bracelet</div>",0,1.47807459677419,7.02019070831193
"323","ph6mq3923gc950g3czaztw8431y6htv4","condrepetition",791,"lila","animacy","repetition","l",1,30,4,"masked",0.01,"congruent",3.24,2.83,3.02,2.96,12.05,"<div style=""font-size:30px;"">dog</div>",0,1.47807459677419,6.67329796776765
"324","ph6mq3923gc950g3czaztw8431y6htv4","condrepetition",730,"lila","animacy","repetition","l",1,31,4,"masked",0.05,"congruent",3.24,2.83,3.02,2.96,12.05,"<div style=""font-size:30px;"">wolf</div>",0,1.47807459677419,6.59304453414244
"325","ph6mq3923gc950g3czaztw8431y6htv4","condrepetition",890,"lism","animacy","repetition","l",1,32,4,"masked",0.01,"incongruent",3.24,2.83,3.02,2.96,12.05,"<div style=""font-size:30px;"">apricot</div>",0,1.47807459677419,6.79122146272619
"326","ph6mq3923gc950g3czaztw8431y6htv4","condrepetition",973,"lila","animacy","repetition","l",1,33,4,"masked",0.05,"congruent",3.24,2.83,3.02,2.96,12.05,"<div style=""font-size:30px;"">whale</div>",0,1.47807459677419,6.880384082186
"327","ph6mq3923gc950g3czaztw8431y6htv4","condrepetition",761,"nosm","size","switch","s",1,34,4,"masked",0.01,"congruent",3.24,2.83,3.02,2.96,12.05,"<div style=""font-size:30px;"">razor</div>",0,1.47807459677419,6.63463335786169
"328","ph6mq3923gc950g3czaztw8431y6htv4","condrepetition",1255,"nola","animacy","switch","k",1,35,4,"masked",0.01,"incongruent",3.24,2.83,3.02,2.96,12.05,"<div style=""font-size:30px;"">toilet</div>",0,1.47807459677419,7.13489085156588
"329","ph6mq3923gc950g3czaztw8431y6htv4","condrepetition",1225,"nosm","size","switch","s",1,36,4,"masked",0.01,"congruent",3.24,2.83,3.02,2.96,12.05,"<div style=""font-size:30px;"">sapphire</div>",0,1.47807459677419,7.11069612297883
"330","ph6mq3923gc950g3czaztw8431y6htv4","condrepetition",824,"lism","animacy","switch","l",1,37,4,"masked",0.05,"incongruent",3.24,2.83,3.02,2.96,12.05,"<div style=""font-size:30px;"">crow</div>",0,1.47807459677419,6.71417052990947
"331","ph6mq3923gc950g3czaztw8431y6htv4","condrepetition",1083,"nosm","size","switch","s",1,38,4,"masked",0.01,"congruent",3.24,2.83,3.02,2.96,12.05,"<div style=""font-size:30px;"">tack</div>",0,1.47807459677419,6.98749024700099
"332","ph6mq3923gc950g3czaztw8431y6htv4","condrepetition",1243,"nola","size","repetition","d",1,39,4,"masked",0.05,"incongruent",3.24,2.83,3.02,2.96,12.05,"<div style=""font-size:30px;"">saturn</div>",0,1.47807459677419,7.12528309151071
"389","5ujouyuz4ce0qxzojpjgd79jn609sg07","condswitch",868,"nola","animacy","repetition","k",1,1,1,"masked",0.01,"incongruent",1.82,1.91,2.05,2.26,8.04,"<div style=""font-size:30px;"">glacier</div>",0,-1.52192540322581,6.76619171466035
"392","5ujouyuz4ce0qxzojpjgd79jn609sg07","condswitch",707,"lism","animacy","repetition","l",1,4,1,"masked",0.01,"incongruent",1.82,1.91,2.05,2.26,8.04,"<div style=""font-size:30px;"">asparagus</div>",0,-1.52192540322581,6.56103066589657
"393","5ujouyuz4ce0qxzojpjgd79jn609sg07","condswitch",661,"lila","animacy","repetition","l",1,5,1,"masked",0.05,"congruent",1.82,1.91,2.05,2.26,8.04,"<div style=""font-size:30px;"">dog</div>",0,-1.52192540322581,6.49375383985169
"394","5ujouyuz4ce0qxzojpjgd79jn609sg07","condswitch",852,"lism","animacy","repetition","l",1,6,1,"masked",0.01,"incongruent",1.82,1.91,2.05,2.26,8.04,"<div style=""font-size:30px;"">rodent</div>",0,-1.52192540322581,6.74758652682932
"396","5ujouyuz4ce0qxzojpjgd79jn609sg07","condswitch",1322,"nosm","size","repetition","s",1,8,1,"masked",0.05,"congruent",1.82,1.91,2.05,2.26,8.04,"<div style=""font-size:30px;"">chopsticks</div>",0,-1.52192540322581,7.18690102041163
"397","5ujouyuz4ce0qxzojpjgd79jn609sg07","condswitch",1070,"nosm","size","repetition","s",1,9,1,"masked",0.01,"congruent",1.82,1.91,2.05,2.26,8.04,"<div style=""font-size:30px;"">soap</div>",0,-1.52192540322581,6.97541392745595
"398","5ujouyuz4ce0qxzojpjgd79jn609sg07","condswitch",896,"nosm","size","repetition","s",1,10,1,"masked",0.01,"congruent",1.82,1.91,2.05,2.26,8.04,"<div style=""font-size:30px;"">shampoo</div>",0,-1.52192540322581,6.79794041297493
"399","5ujouyuz4ce0qxzojpjgd79jn609sg07","condswitch",1148,"lism","size","repetition","s",1,11,1,"masked",0.01,"incongruent",1.82,1.91,2.05,2.26,8.04,"<div style=""font-size:30px;"">lime</div>",0,-1.52192540322581,7.04577657687951
"400","5ujouyuz4ce0qxzojpjgd79jn609sg07","condswitch",834,"nosm","size","repetition","s",1,12,1,"masked",0.01,"congruent",1.82,1.91,2.05,2.26,8.04,"<div style=""font-size:30px;"">pin</div>",0,-1.52192540322581,6.72623340235875
"401","5ujouyuz4ce0qxzojpjgd79jn609sg07","condswitch",679,"lila","animacy","switch","l",1,13,1,"masked",0.05,"congruent",1.82,1.91,2.05,2.26,8.04,"<div style=""font-size:30px;"">panda</div>",0,-1.52192540322581,6.5206211275587
"402","5ujouyuz4ce0qxzojpjgd79jn609sg07","condswitch",972,"nosm","size","switch","s",1,14,1,"masked",0.05,"congruent",1.82,1.91,2.05,2.26,8.04,"<div style=""font-size:30px;"">receipt</div>",0,-1.52192540322581,6.87935580446044
"403","5ujouyuz4ce0qxzojpjgd79jn609sg07","condswitch",1133,"nola","animacy","switch","k",1,15,1,"masked",0.05,"incongruent",1.82,1.91,2.05,2.26,8.04,"<div style=""font-size:30px;"">hut</div>",0,-1.52192540322581,7.03262426102801
"404","5ujouyuz4ce0qxzojpjgd79jn609sg07","condswitch",1018,"nosm","animacy","repetition","k",1,16,1,"masked",0.01,"congruent",1.82,1.91,2.05,2.26,8.04,"<div style=""font-size:30px;"">mitten</div>",0,-1.52192540322581,6.92559519711047
"405","5ujouyuz4ce0qxzojpjgd79jn609sg07","condswitch",1274,"nola","size","switch","d",1,17,1,"masked",0.05,"incongruent",1.82,1.91,2.05,2.26,8.04,"<div style=""font-size:30px;"">windmill</div>",0,-1.52192540322581,7.14991683613211
"406","5ujouyuz4ce0qxzojpjgd79jn609sg07","condswitch",806,"lila","animacy","switch","l",1,18,1,"masked",0.05,"congruent",1.82,1.91,2.05,2.26,8.04,"<div style=""font-size:30px;"">ox</div>",0,-1.52192540322581,6.69208374250663
"407","5ujouyuz4ce0qxzojpjgd79jn609sg07","condswitch",590,"lila","animacy","repetition","l",1,19,1,"masked",0.01,"congruent",1.82,1.91,2.05,2.26,8.04,"<div style=""font-size:30px;"">crocodile</div>",0,-1.52192540322581,6.38012253689976
"408","5ujouyuz4ce0qxzojpjgd79jn609sg07","condswitch",600,"lila","animacy","repetition","l",1,20,1,"masked",0.01,"congruent",1.82,1.91,2.05,2.26,8.04,"<div style=""font-size:30px;"">llama</div>",0,-1.52192540322581,6.39692965521615
"411","5ujouyuz4ce0qxzojpjgd79jn609sg07","condswitch",889,"lism","size","switch","s",1,23,1,"masked",0.05,"incongruent",1.82,1.91,2.05,2.26,8.04,"<div style=""font-size:30px;"">germ</div>",0,-1.52192540322581,6.7900972355139
"412","5ujouyuz4ce0qxzojpjgd79jn609sg07","condswitch",1172,"nosm","size","repetition","s",1,24,1,"masked",0.01,"congruent",1.82,1.91,2.05,2.26,8.04,"<div style=""font-size:30px;"">badge</div>",0,-1.52192540322581,7.06646697013696
"413","5ujouyuz4ce0qxzojpjgd79jn609sg07","condswitch",814,"lila","animacy","switch","l",1,25,1,"masked",0.05,"congruent",1.82,1.91,2.05,2.26,8.04,"<div style=""font-size:30px;"">swan</div>",0,-1.52192540322581,6.70196036600254
"414","5ujouyuz4ce0qxzojpjgd79jn609sg07","condswitch",993,"nola","animacy","repetition","k",1,26,1,"masked",0.01,"incongruent",1.82,1.91,2.05,2.26,8.04,"<div style=""font-size:30px;"">casket</div>",0,-1.52192540322581,6.90073066404517
"415","5ujouyuz4ce0qxzojpjgd79jn609sg07","condswitch",1000,"lism","animacy","repetition","l",1,27,1,"masked",0.01,"incongruent",1.82,1.91,2.05,2.26,8.04,"<div style=""font-size:30px;"">rose</div>",0,-1.52192540322581,6.90775527898214
"416","5ujouyuz4ce0qxzojpjgd79jn609sg07","condswitch",690,"lism","animacy","repetition","l",1,28,1,"masked",0.05,"incongruent",1.82,1.91,2.05,2.26,8.04,"<div style=""font-size:30px;"">beetle</div>",0,-1.52192540322581,6.5366915975913
"417","5ujouyuz4ce0qxzojpjgd79jn609sg07","condswitch",968,"nosm","animacy","repetition","k",1,29,1,"masked",0.01,"congruent",1.82,1.91,2.05,2.26,8.04,"<div style=""font-size:30px;"">ashtray</div>",0,-1.52192540322581,6.87523208727658
"418","5ujouyuz4ce0qxzojpjgd79jn609sg07","condswitch",1186,"lism","animacy","repetition","l",1,30,1,"masked",0.01,"incongruent",1.82,1.91,2.05,2.26,8.04,"<div style=""font-size:30px;"">algae</div>",0,-1.52192540322581,7.07834157955767
"419","5ujouyuz4ce0qxzojpjgd79jn609sg07","condswitch",994,"nola","size","switch","d",1,31,1,"masked",0.05,"incongruent",1.82,1.91,2.05,2.26,8.04,"<div style=""font-size:30px;"">mansion</div>",0,-1.52192540322581,6.90173720665657
"420","5ujouyuz4ce0qxzojpjgd79jn609sg07","condswitch",977,"nosm","size","repetition","s",1,32,1,"masked",0.01,"congruent",1.82,1.91,2.05,2.26,8.04,"<div style=""font-size:30px;"">card</div>",0,-1.52192540322581,6.88448665204278
"421","5ujouyuz4ce0qxzojpjgd79jn609sg07","condswitch",717,"lila","animacy","switch","l",1,33,1,"masked",0.05,"congruent",1.82,1.91,2.05,2.26,8.04,"<div style=""font-size:30px;"">peacock</div>",0,-1.52192540322581,6.57507584059962
"422","5ujouyuz4ce0qxzojpjgd79jn609sg07","condswitch",1088,"nola","size","switch","d",1,34,1,"masked",0.05,"incongruent",1.82,1.91,2.05,2.26,8.04,"<div style=""font-size:30px;"">mattress</div>",0,-1.52192540322581,6.99209642741589
"423","5ujouyuz4ce0qxzojpjgd79jn609sg07","condswitch",617,"lila","animacy","switch","l",1,35,1,"masked",0.05,"congruent",1.82,1.91,2.05,2.26,8.04,"<div style=""font-size:30px;"">beaver</div>",0,-1.52192540322581,6.42486902390539
"424","5ujouyuz4ce0qxzojpjgd79jn609sg07","condswitch",1135,"nosm","size","switch","s",1,36,1,"masked",0.05,"congruent",1.82,1.91,2.05,2.26,8.04,"<div style=""font-size:30px;"">tweezers</div>",0,-1.52192540322581,7.0343879299155
"425","5ujouyuz4ce0qxzojpjgd79jn609sg07","condswitch",633,"lila","animacy","switch","l",1,37,1,"masked",0.05,"congruent",1.82,1.91,2.05,2.26,8.04,"<div style=""font-size:30px;"">rhinoceros</div>",0,-1.52192540322581,6.45047042214418
"426","5ujouyuz4ce0qxzojpjgd79jn609sg07","condswitch",829,"nola","animacy","repetition","k",1,38,1,"masked",0.01,"incongruent",1.82,1.91,2.05,2.26,8.04,"<div style=""font-size:30px;"">iceberg</div>",0,-1.52192540322581,6.7202201551353
"427","5ujouyuz4ce0qxzojpjgd79jn609sg07","condswitch",587,"lism","animacy","repetition","l",1,39,1,"masked",0.01,"incongruent",1.82,1.91,2.05,2.26,8.04,"<div style=""font-size:30px;"">plum</div>",0,-1.52192540322581,6.3750248198281
"469","5ujouyuz4ce0qxzojpjgd79jn609sg07","condswitch",763,"lism","animacy","repetition","l",1,1,2,"masked",0.05,"incongruent",1.82,1.91,2.05,2.26,8.04,"<div style=""font-size:30px;"">olive</div>",0,-0.521925403225806,6.63725803128446
"470","5ujouyuz4ce0qxzojpjgd79jn609sg07","condswitch",737,"lila","animacy","repetition","l",1,2,2,"masked",0.05,"congruent",1.82,1.91,2.05,2.26,8.04,"<div style=""font-size:30px;"">kangaroo</div>",0,-0.521925403225806,6.60258789218934
"473","5ujouyuz4ce0qxzojpjgd79jn609sg07","condswitch",871,"lila","animacy","switch","l",1,5,2,"masked",0.05,"congruent",1.82,1.91,2.05,2.26,8.04,"<div style=""font-size:30px;"">gazelle</div>",0,-0.521925403225806,6.7696419768525
"474","5ujouyuz4ce0qxzojpjgd79jn609sg07","condswitch",787,"lila","animacy","repetition","l",1,6,2,"masked",0.01,"congruent",1.82,1.91,2.05,2.26,8.04,"<div style=""font-size:30px;"">wolf</div>",0,-0.521925403225806,6.6682282484174
"475","5ujouyuz4ce0qxzojpjgd79jn609sg07","condswitch",767,"lism","animacy","repetition","l",1,7,2,"masked",0.01,"incongruent",1.82,1.91,2.05,2.26,8.04,"<div style=""font-size:30px;"">bug</div>",0,-0.521925403225806,6.64248680136726
"476","5ujouyuz4ce0qxzojpjgd79jn609sg07","condswitch",763,"lila","animacy","repetition","l",1,8,2,"masked",0.01,"congruent",1.82,1.91,2.05,2.26,8.04,"<div style=""font-size:30px;"">dragon</div>",0,-0.521925403225806,6.63725803128446
"477","5ujouyuz4ce0qxzojpjgd79jn609sg07","condswitch",1235,"lism","animacy","repetition","l",1,9,2,"masked",0.01,"incongruent",1.82,1.91,2.05,2.26,8.04,"<div style=""font-size:30px;"">cockatoo</div>",0,-0.521925403225806,7.11882624906208
"478","5ujouyuz4ce0qxzojpjgd79jn609sg07","condswitch",805,"lila","animacy","repetition","l",1,10,2,"masked",0.01,"congruent",1.82,1.91,2.05,2.26,8.04,"<div style=""font-size:30px;"">elm</div>",0,-0.521925403225806,6.69084227741856
"480","5ujouyuz4ce0qxzojpjgd79jn609sg07","condswitch",1385,"lila","animacy","switch","l",1,12,2,"masked",0.05,"congruent",1.82,1.91,2.05,2.26,8.04,"<div style=""font-size:30px;"">wolverine</div>",0,-0.521925403225806,7.23345541862144
"483","5ujouyuz4ce0qxzojpjgd79jn609sg07","condswitch",627,"lila","animacy","switch","l",1,15,2,"masked",0.05,"congruent",1.82,1.91,2.05,2.26,8.04,"<div style=""font-size:30px;"">zebra</div>",0,-0.521925403225806,6.44094654063292
"484","5ujouyuz4ce0qxzojpjgd79jn609sg07","condswitch",1160,"nosm","size","switch","s",1,16,2,"masked",0.05,"congruent",1.82,1.91,2.05,2.26,8.04,"<div style=""font-size:30px;"">shoe</div>",0,-0.521925403225806,7.05617528410041
"485","5ujouyuz4ce0qxzojpjgd79jn609sg07","condswitch",1002,"nola","size","repetition","d",1,17,2,"masked",0.01,"incongruent",1.82,1.91,2.05,2.26,8.04,"<div style=""font-size:30px;"">cannon</div>",0,-0.521925403225806,6.90975328164481
"486","5ujouyuz4ce0qxzojpjgd79jn609sg07","condswitch",783,"lism","animacy","switch","l",1,18,2,"masked",0.05,"incongruent",1.82,1.91,2.05,2.26,8.04,"<div style=""font-size:30px;"">tulip</div>",0,-0.521925403225806,6.6631326959908
"487","5ujouyuz4ce0qxzojpjgd79jn609sg07","condswitch",899,"lism","animacy","repetition","l",1,19,2,"masked",0.01,"incongruent",1.82,1.91,2.05,2.26,8.04,"<div style=""font-size:30px;"">mushroom</div>",0,-0.521925403225806,6.80128303447162
"488","5ujouyuz4ce0qxzojpjgd79jn609sg07","condswitch",1099,"nola","size","switch","d",1,20,2,"masked",0.05,"incongruent",1.82,1.91,2.05,2.26,8.04,"<div style=""font-size:30px;"">dorm</div>",0,-0.521925403225806,7.00215595440362
"489","5ujouyuz4ce0qxzojpjgd79jn609sg07","condswitch",656,"lila","animacy","switch","l",1,21,2,"masked",0.05,"congruent",1.82,1.91,2.05,2.26,8.04,"<div style=""font-size:30px;"">camel</div>",0,-0.521925403225806,6.48616078894409
"490","5ujouyuz4ce0qxzojpjgd79jn609sg07","condswitch",735,"lism","animacy","repetition","l",1,22,2,"masked",0.01,"incongruent",1.82,1.91,2.05,2.26,8.04,"<div style=""font-size:30px;"">apricot</div>",0,-0.521925403225806,6.59987049921284
"491","5ujouyuz4ce0qxzojpjgd79jn609sg07","condswitch",838,"lism","animacy","repetition","l",1,23,2,"masked",0.01,"incongruent",1.82,1.91,2.05,2.26,8.04,"<div style=""font-size:30px;"">dove</div>",0,-0.521925403225806,6.73101810048208
"492","5ujouyuz4ce0qxzojpjgd79jn609sg07","condswitch",613,"lism","animacy","repetition","l",1,24,2,"masked",0.01,"incongruent",1.82,1.91,2.05,2.26,8.04,"<div style=""font-size:30px;"">pear</div>",0,-0.521925403225806,6.41836493593621
"493","5ujouyuz4ce0qxzojpjgd79jn609sg07","condswitch",680,"lism","animacy","repetition","l",1,25,2,"masked",0.01,"incongruent",1.82,1.91,2.05,2.26,8.04,"<div style=""font-size:30px;"">frog</div>",0,-0.521925403225806,6.52209279817015
"494","5ujouyuz4ce0qxzojpjgd79jn609sg07","condswitch",655,"lism","animacy","repetition","l",1,26,2,"masked",0.01,"incongruent",1.82,1.91,2.05,2.26,8.04,"<div style=""font-size:30px;"">moth</div>",0,-0.521925403225806,6.48463523563525
"495","5ujouyuz4ce0qxzojpjgd79jn609sg07","condswitch",1330,"nosm","size","switch","s",1,27,2,"masked",0.05,"congruent",1.82,1.91,2.05,2.26,8.04,"<div style=""font-size:30px;"">pebble</div>",0,-0.521925403225806,7.1929342212158
"496","5ujouyuz4ce0qxzojpjgd79jn609sg07","condswitch",1038,"nosm","size","repetition","s",1,28,2,"masked",0.01,"congruent",1.82,1.91,2.05,2.26,8.04,"<div style=""font-size:30px;"">comb</div>",0,-0.521925403225806,6.94505106372583
"497","5ujouyuz4ce0qxzojpjgd79jn609sg07","condswitch",1037,"nola","animacy","switch","k",1,29,2,"masked",0.05,"incongruent",1.82,1.91,2.05,2.26,8.04,"<div style=""font-size:30px;"">steamboat</div>",0,-0.521925403225806,6.94408720822953
"498","5ujouyuz4ce0qxzojpjgd79jn609sg07","condswitch",972,"nosm","animacy","repetition","k",1,30,2,"masked",0.01,"congruent",1.82,1.91,2.05,2.26,8.04,"<div style=""font-size:30px;"">teapot</div>",0,-0.521925403225806,6.87935580446044
"499","5ujouyuz4ce0qxzojpjgd79jn609sg07","condswitch",823,"nosm","size","switch","s",1,31,2,"masked",0.05,"congruent",1.82,1.91,2.05,2.26,8.04,"<div style=""font-size:30px;"">bracelet</div>",0,-0.521925403225806,6.71295620067707
"502","5ujouyuz4ce0qxzojpjgd79jn609sg07","condswitch",782,"nosm","animacy","repetition","k",1,34,2,"masked",0.05,"congruent",1.82,1.91,2.05,2.26,8.04,"<div style=""font-size:30px;"">staple</div>",0,-0.521925403225806,6.66185474054531
"505","5ujouyuz4ce0qxzojpjgd79jn609sg07","condswitch",877,"nola","size","repetition","d",1,37,2,"masked",0.01,"incongruent",1.82,1.91,2.05,2.26,8.04,"<div style=""font-size:30px;"">keg</div>",0,-0.521925403225806,6.77650699237218
"506","5ujouyuz4ce0qxzojpjgd79jn609sg07","condswitch",651,"nola","size","repetition","d",1,38,2,"masked",0.01,"incongruent",1.82,1.91,2.05,2.26,8.04,"<div style=""font-size:30px;"">mall</div>",0,-0.521925403225806,6.47850964220857
"507","5ujouyuz4ce0qxzojpjgd79jn609sg07","condswitch",877,"nosm","size","repetition","s",1,39,2,"masked",0.05,"congruent",1.82,1.91,2.05,2.26,8.04,"<div style=""font-size:30px;"">dime</div>",0,-0.521925403225806,6.77650699237218
"549","5ujouyuz4ce0qxzojpjgd79jn609sg07","condswitch",955,"nola","size","switch","d",1,1,3,"masked",0.05,"incongruent",1.82,1.91,2.05,2.26,8.04,"<div style=""font-size:30px;"">dryer</div>",0,0.478074596774194,6.86171134048073
"550","5ujouyuz4ce0qxzojpjgd79jn609sg07","condswitch",978,"lila","animacy","switch","l",1,2,3,"masked",0.05,"congruent",1.82,1.91,2.05,2.26,8.04,"<div style=""font-size:30px;"">stallion</div>",0,0.478074596774194,6.88550967003482
"551","5ujouyuz4ce0qxzojpjgd79jn609sg07","condswitch",1060,"lila","animacy","repetition","l",1,3,3,"masked",0.01,"congruent",1.82,1.91,2.05,2.26,8.04,"<div style=""font-size:30px;"">tree</div>",0,0.478074596774194,6.96602418710611
"553","5ujouyuz4ce0qxzojpjgd79jn609sg07","condswitch",1201,"nosm","size","repetition","s",1,5,3,"masked",0.01,"congruent",1.82,1.91,2.05,2.26,8.04,"<div style=""font-size:30px;"">handcuffs</div>",0,0.478074596774194,7.09090982207998
"554","5ujouyuz4ce0qxzojpjgd79jn609sg07","condswitch",865,"nola","size","repetition","d",1,6,3,"masked",0.01,"incongruent",1.82,1.91,2.05,2.26,8.04,"<div style=""font-size:30px;"">taxi</div>",0,0.478074596774194,6.76272950693188
"556","5ujouyuz4ce0qxzojpjgd79jn609sg07","condswitch",815,"nosm","size","repetition","s",1,8,3,"masked",0.01,"congruent",1.82,1.91,2.05,2.26,8.04,"<div style=""font-size:30px;"">needle</div>",0,0.478074596774194,6.70318811324086
"557","5ujouyuz4ce0qxzojpjgd79jn609sg07","condswitch",651,"nosm","size","repetition","s",1,9,3,"masked",0.05,"congruent",1.82,1.91,2.05,2.26,8.04,"<div style=""font-size:30px;"">keys</div>",0,0.478074596774194,6.47850964220857
"558","5ujouyuz4ce0qxzojpjgd79jn609sg07","condswitch",796,"nosm","animacy","switch","k",1,10,3,"masked",0.05,"congruent",1.82,1.91,2.05,2.26,8.04,"<div style=""font-size:30px;"">coin</div>",0,0.478074596774194,6.67959918584438
"559","5ujouyuz4ce0qxzojpjgd79jn609sg07","condswitch",1031,"nola","size","switch","d",1,11,3,"masked",0.05,"incongruent",1.82,1.91,2.05,2.26,8.04,"<div style=""font-size:30px;"">vault</div>",0,0.478074596774194,6.93828448401696
"560","5ujouyuz4ce0qxzojpjgd79jn609sg07","condswitch",1175,"nola","size","repetition","d",1,12,3,"masked",0.01,"incongruent",1.82,1.91,2.05,2.26,8.04,"<div style=""font-size:30px;"">parachute</div>",0,0.478074596774194,7.06902342657826
"561","5ujouyuz4ce0qxzojpjgd79jn609sg07","condswitch",735,"nosm","animacy","switch","k",1,13,3,"masked",0.05,"congruent",1.82,1.91,2.05,2.26,8.04,"<div style=""font-size:30px;"">sock</div>",0,0.478074596774194,6.59987049921284
"562","5ujouyuz4ce0qxzojpjgd79jn609sg07","condswitch",1018,"nola","animacy","repetition","k",1,14,3,"masked",0.01,"incongruent",1.82,1.91,2.05,2.26,8.04,"<div style=""font-size:30px;"">bathtub</div>",0,0.478074596774194,6.92559519711047
"563","5ujouyuz4ce0qxzojpjgd79jn609sg07","condswitch",1062,"nola","size","switch","d",1,15,3,"masked",0.05,"incongruent",1.82,1.91,2.05,2.26,8.04,"<div style=""font-size:30px;"">tuba</div>",0,0.478074596774194,6.96790920180188
"564","5ujouyuz4ce0qxzojpjgd79jn609sg07","condswitch",751,"lila","animacy","switch","l",1,16,3,"masked",0.05,"congruent",1.82,1.91,2.05,2.26,8.04,"<div style=""font-size:30px;"">deer</div>",0,0.478074596774194,6.62140565176413
"565","5ujouyuz4ce0qxzojpjgd79jn609sg07","condswitch",749,"lism","animacy","repetition","l",1,17,3,"masked",0.01,"incongruent",1.82,1.91,2.05,2.26,8.04,"<div style=""font-size:30px;"">blueberry</div>",0,0.478074596774194,6.61873898351722
"566","5ujouyuz4ce0qxzojpjgd79jn609sg07","condswitch",1206,"nola","size","switch","d",1,18,3,"masked",0.05,"incongruent",1.82,1.91,2.05,2.26,8.04,"<div style=""font-size:30px;"">hammock</div>",0,0.478074596774194,7.09506437728713
"567","5ujouyuz4ce0qxzojpjgd79jn609sg07","condswitch",1299,"nosm","size","repetition","s",1,19,3,"masked",0.01,"congruent",1.82,1.91,2.05,2.26,8.04,"<div style=""font-size:30px;"">cigar</div>",0,0.478074596774194,7.1693500166706
"570","5ujouyuz4ce0qxzojpjgd79jn609sg07","condswitch",623,"lism","animacy","repetition","l",1,22,3,"masked",0.01,"incongruent",1.82,1.91,2.05,2.26,8.04,"<div style=""font-size:30px;"">bee</div>",0,0.478074596774194,6.43454651878745
"572","5ujouyuz4ce0qxzojpjgd79jn609sg07","condswitch",624,"lism","animacy","switch","l",1,24,3,"masked",0.05,"incongruent",1.82,1.91,2.05,2.26,8.04,"<div style=""font-size:30px;"">fruit</div>",0,0.478074596774194,6.43615036836943
"573","5ujouyuz4ce0qxzojpjgd79jn609sg07","condswitch",1298,"nola","size","switch","d",1,25,3,"masked",0.05,"incongruent",1.82,1.91,2.05,2.26,8.04,"<div style=""font-size:30px;"">tank</div>",0,0.478074596774194,7.16857989726403
"574","5ujouyuz4ce0qxzojpjgd79jn609sg07","condswitch",859,"lila","animacy","switch","l",1,26,3,"masked",0.05,"congruent",1.82,1.91,2.05,2.26,8.04,"<div style=""font-size:30px;"">donkey</div>",0,0.478074596774194,6.75576892198425
"575","5ujouyuz4ce0qxzojpjgd79jn609sg07","condswitch",1017,"nosm","animacy","repetition","k",1,27,3,"masked",0.01,"congruent",1.82,1.91,2.05,2.26,8.04,"<div style=""font-size:30px;"">napkin</div>",0,0.478074596774194,6.92461239604856
"576","5ujouyuz4ce0qxzojpjgd79jn609sg07","condswitch",636,"lism","animacy","repetition","l",1,28,3,"masked",0.01,"incongruent",1.82,1.91,2.05,2.26,8.04,"<div style=""font-size:30px;"">avocado</div>",0,0.478074596774194,6.45519856334012
"577","5ujouyuz4ce0qxzojpjgd79jn609sg07","condswitch",1048,"lism","animacy","repetition","l",1,29,3,"masked",0.01,"incongruent",1.82,1.91,2.05,2.26,8.04,"<div style=""font-size:30px;"">lice</div>",0,0.478074596774194,6.95463886488099
"578","5ujouyuz4ce0qxzojpjgd79jn609sg07","condswitch",1120,"lila","animacy","repetition","l",1,30,3,"masked",0.01,"congruent",1.82,1.91,2.05,2.26,8.04,"<div style=""font-size:30px;"">redwood</div>",0,0.478074596774194,7.02108396428914
"579","5ujouyuz4ce0qxzojpjgd79jn609sg07","condswitch",1169,"nola","animacy","repetition","k",1,31,3,"masked",0.01,"incongruent",1.82,1.91,2.05,2.26,8.04,"<div style=""font-size:30px;"">igloo</div>",0,0.478074596774194,7.06390396147207
"580","5ujouyuz4ce0qxzojpjgd79jn609sg07","condswitch",936,"lism","animacy","repetition","l",1,32,3,"masked",0.01,"incongruent",1.82,1.91,2.05,2.26,8.04,"<div style=""font-size:30px;"">sparrow</div>",0,0.478074596774194,6.84161547647759
"581","5ujouyuz4ce0qxzojpjgd79jn609sg07","condswitch",712,"lila","animacy","repetition","l",1,33,3,"masked",0.01,"congruent",1.82,1.91,2.05,2.26,8.04,"<div style=""font-size:30px;"">buffalo</div>",0,0.478074596774194,6.56807791141198
"582","5ujouyuz4ce0qxzojpjgd79jn609sg07","condswitch",927,"lism","animacy","repetition","l",1,34,3,"masked",0.01,"incongruent",1.82,1.91,2.05,2.26,8.04,"<div style=""font-size:30px;"">parsley</div>",0,0.478074596774194,6.83195356556585
"583","5ujouyuz4ce0qxzojpjgd79jn609sg07","condswitch",862,"nola","size","switch","d",1,35,3,"masked",0.05,"incongruent",1.82,1.91,2.05,2.26,8.04,"<div style=""font-size:30px;"">tower</div>",0,0.478074596774194,6.75925527066369
"584","5ujouyuz4ce0qxzojpjgd79jn609sg07","condswitch",742,"lila","animacy","switch","l",1,36,3,"masked",0.05,"congruent",1.82,1.91,2.05,2.26,8.04,"<div style=""font-size:30px;"">gorilla</div>",0,0.478074596774194,6.60934924316738
"585","5ujouyuz4ce0qxzojpjgd79jn609sg07","condswitch",855,"lism","animacy","repetition","l",1,37,3,"masked",0.01,"incongruent",1.82,1.91,2.05,2.26,8.04,"<div style=""font-size:30px;"">shrimp</div>",0,0.478074596774194,6.75110146893676
"586","5ujouyuz4ce0qxzojpjgd79jn609sg07","condswitch",842,"lism","animacy","repetition","l",1,38,3,"masked",0.01,"incongruent",1.82,1.91,2.05,2.26,8.04,"<div style=""font-size:30px;"">bean</div>",0,0.478074596774194,6.73578001424233
"587","5ujouyuz4ce0qxzojpjgd79jn609sg07","condswitch",750,"nosm","animacy","repetition","k",1,39,3,"masked",0.01,"congruent",1.82,1.91,2.05,2.26,8.04,"<div style=""font-size:30px;"">whistle</div>",0,0.478074596774194,6.62007320653036
"629","5ujouyuz4ce0qxzojpjgd79jn609sg07","condswitch",684,"lism","animacy","switch","l",1,1,4,"masked",0.05,"incongruent",1.82,1.91,2.05,2.26,8.04,"<div style=""font-size:30px;"">flea</div>",0,1.47807459677419,6.52795791762255
"630","5ujouyuz4ce0qxzojpjgd79jn609sg07","condswitch",1187,"nosm","size","switch","s",1,2,4,"masked",0.05,"congruent",1.82,1.91,2.05,2.26,8.04,"<div style=""font-size:30px;"">zipper</div>",0,1.47807459677419,7.07918439460967
"631","5ujouyuz4ce0qxzojpjgd79jn609sg07","condswitch",600,"lila","animacy","switch","l",1,3,4,"masked",0.05,"congruent",1.82,1.91,2.05,2.26,8.04,"<div style=""font-size:30px;"">ape</div>",0,1.47807459677419,6.39692965521615
"632","5ujouyuz4ce0qxzojpjgd79jn609sg07","condswitch",674,"lism","animacy","repetition","l",1,4,4,"masked",0.01,"incongruent",1.82,1.91,2.05,2.26,8.04,"<div style=""font-size:30px;"">spider</div>",0,1.47807459677419,6.51323011091231
"633","5ujouyuz4ce0qxzojpjgd79jn609sg07","condswitch",640,"lila","animacy","repetition","l",1,5,4,"masked",0.01,"congruent",1.82,1.91,2.05,2.26,8.04,"<div style=""font-size:30px;"">pony</div>",0,1.47807459677419,6.46146817635372
"634","5ujouyuz4ce0qxzojpjgd79jn609sg07","condswitch",1412,"nola","size","switch","d",1,6,4,"masked",0.05,"incongruent",1.82,1.91,2.05,2.26,8.04,"<div style=""font-size:30px;"">canoe</div>",0,1.47807459677419,7.25276241805319
"635","5ujouyuz4ce0qxzojpjgd79jn609sg07","condswitch",787,"lila","animacy","switch","l",1,7,4,"masked",0.05,"congruent",1.82,1.91,2.05,2.26,8.04,"<div style=""font-size:30px;"">hyena</div>",0,1.47807459677419,6.6682282484174
"636","5ujouyuz4ce0qxzojpjgd79jn609sg07","condswitch",895,"nosm","size","switch","s",1,8,4,"masked",0.05,"congruent",1.82,1.91,2.05,2.26,8.04,"<div style=""font-size:30px;"">dice</div>",0,1.47807459677419,6.79682371827486
"637","5ujouyuz4ce0qxzojpjgd79jn609sg07","condswitch",685,"lila","animacy","switch","l",1,9,4,"masked",0.05,"congruent",1.82,1.91,2.05,2.26,8.04,"<div style=""font-size:30px;"">hog</div>",0,1.47807459677419,6.52941883826223
"640","5ujouyuz4ce0qxzojpjgd79jn609sg07","condswitch",1006,"lism","animacy","switch","l",1,12,4,"masked",0.05,"incongruent",1.82,1.91,2.05,2.26,8.04,"<div style=""font-size:30px;"">sardine</div>",0,1.47807459677419,6.91373735065968
"643","5ujouyuz4ce0qxzojpjgd79jn609sg07","condswitch",625,"lism","animacy","repetition","l",1,15,4,"masked",0.01,"incongruent",1.82,1.91,2.05,2.26,8.04,"<div style=""font-size:30px;"">worm</div>",0,1.47807459677419,6.4377516497364
"644","5ujouyuz4ce0qxzojpjgd79jn609sg07","condswitch",976,"nola","size","switch","d",1,16,4,"masked",0.05,"incongruent",1.82,1.91,2.05,2.26,8.04,"<div style=""font-size:30px;"">chimney</div>",0,1.47807459677419,6.88346258641309
"645","5ujouyuz4ce0qxzojpjgd79jn609sg07","condswitch",836,"nosm","size","repetition","s",1,17,4,"masked",0.01,"congruent",1.82,1.91,2.05,2.26,8.04,"<div style=""font-size:30px;"">spoon</div>",0,1.47807459677419,6.7286286130847
"646","5ujouyuz4ce0qxzojpjgd79jn609sg07","condswitch",962,"nosm","size","repetition","s",1,18,4,"masked",0.01,"congruent",1.82,1.91,2.05,2.26,8.04,"<div style=""font-size:30px;"">peg</div>",0,1.47807459677419,6.86901445066571
"647","5ujouyuz4ce0qxzojpjgd79jn609sg07","condswitch",784,"nosm","size","repetition","s",1,19,4,"masked",0.05,"congruent",1.82,1.91,2.05,2.26,8.04,"<div style=""font-size:30px;"">scissors</div>",0,1.47807459677419,6.66440902035041
"648","5ujouyuz4ce0qxzojpjgd79jn609sg07","condswitch",793,"lism","animacy","switch","l",1,20,4,"masked",0.05,"incongruent",1.82,1.91,2.05,2.26,8.04,"<div style=""font-size:30px;"">onion</div>",0,1.47807459677419,6.67582322163485
"649","5ujouyuz4ce0qxzojpjgd79jn609sg07","condswitch",1009,"lism","animacy","repetition","l",1,21,4,"masked",0.01,"incongruent",1.82,1.91,2.05,2.26,8.04,"<div style=""font-size:30px;"">peas</div>",0,1.47807459677419,6.91671502035361
"650","5ujouyuz4ce0qxzojpjgd79jn609sg07","condswitch",935,"nola","size","switch","d",1,22,4,"masked",0.05,"incongruent",1.82,1.91,2.05,2.26,8.04,"<div style=""font-size:30px;"">treadmill</div>",0,1.47807459677419,6.84054652928869
"651","5ujouyuz4ce0qxzojpjgd79jn609sg07","condswitch",1151,"lism","animacy","switch","l",1,23,4,"masked",0.05,"incongruent",1.82,1.91,2.05,2.26,8.04,"<div style=""font-size:30px;"">weasel</div>",0,1.47807459677419,7.04838640872188
"652","5ujouyuz4ce0qxzojpjgd79jn609sg07","condswitch",766,"nosm","size","switch","s",1,24,4,"masked",0.05,"congruent",1.82,1.91,2.05,2.26,8.04,"<div style=""font-size:30px;"">marble</div>",0,1.47807459677419,6.64118216974059
"653","5ujouyuz4ce0qxzojpjgd79jn609sg07","condswitch",731,"lila","animacy","switch","l",1,25,4,"masked",0.05,"congruent",1.82,1.91,2.05,2.26,8.04,"<div style=""font-size:30px;"">leopard</div>",0,1.47807459677419,6.59441345974978
"654","5ujouyuz4ce0qxzojpjgd79jn609sg07","condswitch",1195,"lism","animacy","repetition","l",1,26,4,"masked",0.01,"incongruent",1.82,1.91,2.05,2.26,8.04,"<div style=""font-size:30px;"">peach</div>",0,1.47807459677419,7.08590146436561
"655","5ujouyuz4ce0qxzojpjgd79jn609sg07","condswitch",745,"nola","animacy","repetition","k",1,27,4,"masked",0.01,"incongruent",1.82,1.91,2.05,2.26,8.04,"<div style=""font-size:30px;"">rocket</div>",0,1.47807459677419,6.61338421837956
"656","5ujouyuz4ce0qxzojpjgd79jn609sg07","condswitch",723,"lism","animacy","repetition","l",1,28,4,"masked",0.01,"incongruent",1.82,1.91,2.05,2.26,8.04,"<div style=""font-size:30px;"">mice</div>",0,1.47807459677419,6.58340922215876
"657","5ujouyuz4ce0qxzojpjgd79jn609sg07","condswitch",900,"nosm","size","switch","s",1,29,4,"masked",0.01,"congruent",1.82,1.91,2.05,2.26,8.04,"<div style=""font-size:30px;"">toothbrush</div>",0,1.47807459677419,6.80239476332431
"658","5ujouyuz4ce0qxzojpjgd79jn609sg07","condswitch",1306,"lila","animacy","switch","l",1,30,4,"masked",0.05,"congruent",1.82,1.91,2.05,2.26,8.04,"<div style=""font-size:30px;"">fir</div>",0,1.47807459677419,7.17472430983638
"659","5ujouyuz4ce0qxzojpjgd79jn609sg07","condswitch",694,"lila","animacy","repetition","l",1,31,4,"masked",0.01,"congruent",1.82,1.91,2.05,2.26,8.04,"<div style=""font-size:30px;"">hawk</div>",0,1.47807459677419,6.5424719605068
"660","5ujouyuz4ce0qxzojpjgd79jn609sg07","condswitch",1427,"nosm","size","switch","s",1,32,4,"masked",0.05,"congruent",1.82,1.91,2.05,2.26,8.04,"<div style=""font-size:30px;"">scalpel</div>",0,1.47807459677419,7.26332961747684
"661","5ujouyuz4ce0qxzojpjgd79jn609sg07","condswitch",859,"nola","animacy","switch","k",1,33,4,"masked",0.01,"incongruent",1.82,1.91,2.05,2.26,8.04,"<div style=""font-size:30px;"">rowboat</div>",0,1.47807459677419,6.75576892198425
"662","5ujouyuz4ce0qxzojpjgd79jn609sg07","condswitch",1016,"nosm","size","switch","s",1,34,4,"masked",0.05,"congruent",1.82,1.91,2.05,2.26,8.04,"<div style=""font-size:30px;"">nickel</div>",0,1.47807459677419,6.92362862813843
"663","5ujouyuz4ce0qxzojpjgd79jn609sg07","condswitch",785,"lila","animacy","switch","l",1,35,4,"masked",0.05,"congruent",1.82,1.91,2.05,2.26,8.04,"<div style=""font-size:30px;"">shark</div>",0,1.47807459677419,6.66568371778241
"664","5ujouyuz4ce0qxzojpjgd79jn609sg07","condswitch",1048,"nola","size","switch","d",1,36,4,"masked",0.05,"incongruent",1.82,1.91,2.05,2.26,8.04,"<div style=""font-size:30px;"">ambulance</div>",0,1.47807459677419,6.95463886488099
"665","5ujouyuz4ce0qxzojpjgd79jn609sg07","condswitch",1053,"lila","size","repetition","d",1,37,4,"masked",0.01,"congruent",1.82,1.91,2.05,2.26,8.04,"<div style=""font-size:30px;"">tiger</div>",0,1.47807459677419,6.95939851213398
"666","5ujouyuz4ce0qxzojpjgd79jn609sg07","condswitch",713,"nola","size","repetition","d",1,38,4,"masked",0.01,"incongruent",1.82,1.91,2.05,2.26,8.04,"<div style=""font-size:30px;"">sofa</div>",0,1.47807459677419,6.5694814204143
"667","5ujouyuz4ce0qxzojpjgd79jn609sg07","condswitch",836,"nola","animacy","switch","k",1,39,4,"masked",0.05,"incongruent",1.82,1.91,2.05,2.26,8.04,"<div style=""font-size:30px;"">jeep</div>",0,1.47807459677419,6.7286286130847
"724","poaxpoan5xeq1f1c9whckjk5vpkt2pj9","condrepetition",596,"lism","animacy","repetition","k",1,1,1,"masked",0.05,"congruent",2.62,3.22,3.57,3.42,12.83,"<div style=""font-size:30px;"">cherry</div>",0,-1.52192540322581,6.39024066706535
"725","poaxpoan5xeq1f1c9whckjk5vpkt2pj9","condrepetition",657,"lila","animacy","repetition","k",1,2,1,"masked",0.05,"incongruent",2.62,3.22,3.57,3.42,12.83,"<div style=""font-size:30px;"">donkey</div>",0,-1.52192540322581,6.48768401848461
"726","poaxpoan5xeq1f1c9whckjk5vpkt2pj9","condrepetition",531,"lism","size","switch","s",1,3,1,"masked",0.01,"congruent",2.62,3.22,3.57,3.42,12.83,"<div style=""font-size:30px;"">beetle</div>",0,-1.52192540322581,6.27476202124194
"732","poaxpoan5xeq1f1c9whckjk5vpkt2pj9","condrepetition",801,"lism","animacy","repetition","k",1,9,1,"masked",0.05,"congruent",2.62,3.22,3.57,3.42,12.83,"<div style=""font-size:30px;"">potato</div>",0,-1.52192540322581,6.68586094706836
"733","poaxpoan5xeq1f1c9whckjk5vpkt2pj9","condrepetition",879,"nosm","animacy","repetition","l",1,10,1,"masked",0.05,"incongruent",2.62,3.22,3.57,3.42,12.83,"<div style=""font-size:30px;"">flask</div>",0,-1.52192540322581,6.77878489768518
"735","poaxpoan5xeq1f1c9whckjk5vpkt2pj9","condrepetition",884,"lism","animacy","switch","k",1,12,1,"masked",0.01,"congruent",2.62,3.22,3.57,3.42,12.83,"<div style=""font-size:30px;"">mosquito</div>",0,-1.52192540322581,6.78445706263764
"736","poaxpoan5xeq1f1c9whckjk5vpkt2pj9","condrepetition",764,"nosm","animacy","repetition","l",1,13,1,"masked",0.05,"incongruent",2.62,3.22,3.57,3.42,12.83,"<div style=""font-size:30px;"">chalk</div>",0,-1.52192540322581,6.63856778916652
"738","poaxpoan5xeq1f1c9whckjk5vpkt2pj9","condrepetition",911,"lism","animacy","switch","k",1,15,1,"masked",0.01,"congruent",2.62,3.22,3.57,3.42,12.83,"<div style=""font-size:30px;"">mushroom</div>",0,-1.52192540322581,6.81454289725996
"739","poaxpoan5xeq1f1c9whckjk5vpkt2pj9","condrepetition",575,"lism","animacy","repetition","k",1,16,1,"masked",0.05,"congruent",2.62,3.22,3.57,3.42,12.83,"<div style=""font-size:30px;"">bug</div>",0,-1.52192540322581,6.35437004079735
"740","poaxpoan5xeq1f1c9whckjk5vpkt2pj9","condrepetition",762,"nosm","animacy","repetition","l",1,17,1,"masked",0.05,"incongruent",2.62,3.22,3.57,3.42,12.83,"<div style=""font-size:30px;"">soap</div>",0,-1.52192540322581,6.63594655568665
"741","poaxpoan5xeq1f1c9whckjk5vpkt2pj9","condrepetition",1236,"nola","size","switch","d",1,18,1,"masked",0.01,"congruent",2.62,3.22,3.57,3.42,12.83,"<div style=""font-size:30px;"">galaxy</div>",0,-1.52192540322581,7.11963563801764
"744","poaxpoan5xeq1f1c9whckjk5vpkt2pj9","condrepetition",1056,"lila","animacy","repetition","k",1,21,1,"masked",0.05,"incongruent",2.62,3.22,3.57,3.42,12.83,"<div style=""font-size:30px;"">chimpanzee</div>",0,-1.52192540322581,6.96224346426621
"745","poaxpoan5xeq1f1c9whckjk5vpkt2pj9","condrepetition",591,"lila","animacy","repetition","k",1,22,1,"masked",0.05,"incongruent",2.62,3.22,3.57,3.42,12.83,"<div style=""font-size:30px;"">hawk</div>",0,-1.52192540322581,6.3818160174061
"746","poaxpoan5xeq1f1c9whckjk5vpkt2pj9","condrepetition",759,"lism","animacy","repetition","k",1,23,1,"masked",0.05,"congruent",2.62,3.22,3.57,3.42,12.83,"<div style=""font-size:30px;"">tomato</div>",0,-1.52192540322581,6.63200177739563
"747","poaxpoan5xeq1f1c9whckjk5vpkt2pj9","condrepetition",826,"nola","animacy","repetition","l",1,24,1,"masked",0.05,"congruent",2.62,3.22,3.57,3.42,12.83,"<div style=""font-size:30px;"">surfboard</div>",0,-1.52192540322581,6.71659477352098
"749","poaxpoan5xeq1f1c9whckjk5vpkt2pj9","condrepetition",902,"nosm","animacy","repetition","l",1,26,1,"masked",0.05,"incongruent",2.62,3.22,3.57,3.42,12.83,"<div style=""font-size:30px;"">lock</div>",0,-1.52192540322581,6.80461452006262
"750","poaxpoan5xeq1f1c9whckjk5vpkt2pj9","condrepetition",820,"nosm","size","switch","s",1,27,1,"masked",0.01,"incongruent",2.62,3.22,3.57,3.42,12.83,"<div style=""font-size:30px;"">bandage</div>",0,-1.52192540322581,6.7093043402583
"751","poaxpoan5xeq1f1c9whckjk5vpkt2pj9","condrepetition",955,"nola","animacy","switch","l",1,28,1,"masked",0.01,"congruent",2.62,3.22,3.57,3.42,12.83,"<div style=""font-size:30px;"">glacier</div>",0,-1.52192540322581,6.86171134048073
"752","poaxpoan5xeq1f1c9whckjk5vpkt2pj9","condrepetition",807,"lism","animacy","repetition","k",1,29,1,"masked",0.05,"congruent",2.62,3.22,3.57,3.42,12.83,"<div style=""font-size:30px;"">rat</div>",0,-1.52192540322581,6.69332366826995
"753","poaxpoan5xeq1f1c9whckjk5vpkt2pj9","condrepetition",1042,"nola","animacy","repetition","l",1,30,1,"masked",0.05,"congruent",2.62,3.22,3.57,3.42,12.83,"<div style=""font-size:30px;"">gym</div>",0,-1.52192540322581,6.94889722231331
"754","poaxpoan5xeq1f1c9whckjk5vpkt2pj9","condrepetition",1217,"lila","animacy","repetition","k",1,31,1,"masked",0.01,"incongruent",2.62,3.22,3.57,3.42,12.83,"<div style=""font-size:30px;"">beast</div>",0,-1.52192540322581,7.10414409298753
"755","poaxpoan5xeq1f1c9whckjk5vpkt2pj9","condrepetition",778,"lila","animacy","repetition","k",1,32,1,"masked",0.05,"incongruent",2.62,3.22,3.57,3.42,12.83,"<div style=""font-size:30px;"">hyena</div>",0,-1.52192540322581,6.65672652417839
"756","poaxpoan5xeq1f1c9whckjk5vpkt2pj9","condrepetition",747,"nosm","animacy","repetition","l",1,33,1,"masked",0.01,"incongruent",2.62,3.22,3.57,3.42,12.83,"<div style=""font-size:30px;"">beaker</div>",0,-1.52192540322581,6.61606518513282
"758","poaxpoan5xeq1f1c9whckjk5vpkt2pj9","condrepetition",702,"nola","animacy","repetition","l",1,35,1,"masked",0.05,"congruent",2.62,3.22,3.57,3.42,12.83,"<div style=""font-size:30px;"">billboard</div>",0,-1.52192540322581,6.55393340402581
"760","poaxpoan5xeq1f1c9whckjk5vpkt2pj9","condrepetition",812,"lila","animacy","repetition","k",1,37,1,"masked",0.05,"incongruent",2.62,3.22,3.57,3.42,12.83,"<div style=""font-size:30px;"">vulture</div>",0,-1.52192540322581,6.69950034016168
"761","poaxpoan5xeq1f1c9whckjk5vpkt2pj9","condrepetition",650,"nosm","animacy","repetition","l",1,38,1,"masked",0.05,"incongruent",2.62,3.22,3.57,3.42,12.83,"<div style=""font-size:30px;"">ashtray</div>",0,-1.52192540322581,6.47697236288968
"762","poaxpoan5xeq1f1c9whckjk5vpkt2pj9","condrepetition",736,"nola","animacy","repetition","l",1,39,1,"masked",0.05,"congruent",2.62,3.22,3.57,3.42,12.83,"<div style=""font-size:30px;"">tent</div>",0,-1.52192540322581,6.60123011872888
"806","poaxpoan5xeq1f1c9whckjk5vpkt2pj9","condrepetition",1207,"nosm","animacy","repetition","l",1,3,2,"masked",0.01,"incongruent",2.62,3.22,3.57,3.42,12.83,"<div style=""font-size:30px;"">mug</div>",0,-0.521925403225806,7.09589322109753
"808","poaxpoan5xeq1f1c9whckjk5vpkt2pj9","condrepetition",889,"lism","animacy","repetition","k",1,5,2,"masked",0.05,"congruent",2.62,3.22,3.57,3.42,12.83,"<div style=""font-size:30px;"">robin</div>",0,-0.521925403225806,6.7900972355139
"809","poaxpoan5xeq1f1c9whckjk5vpkt2pj9","condrepetition",874,"nola","animacy","repetition","l",1,6,2,"masked",0.05,"congruent",2.62,3.22,3.57,3.42,12.83,"<div style=""font-size:30px;"">pier</div>",0,-0.521925403225806,6.77308037565554
"810","poaxpoan5xeq1f1c9whckjk5vpkt2pj9","condrepetition",677,"lila","animacy","repetition","k",1,7,2,"masked",0.05,"incongruent",2.62,3.22,3.57,3.42,12.83,"<div style=""font-size:30px;"">ox</div>",0,-0.521925403225806,6.51767127291227
"812","poaxpoan5xeq1f1c9whckjk5vpkt2pj9","condrepetition",825,"nola","animacy","repetition","l",1,9,2,"masked",0.05,"congruent",2.62,3.22,3.57,3.42,12.83,"<div style=""font-size:30px;"">luggage</div>",0,-0.521925403225806,6.71538338633468
"813","poaxpoan5xeq1f1c9whckjk5vpkt2pj9","condrepetition",805,"nosm","animacy","repetition","l",1,10,2,"masked",0.05,"incongruent",2.62,3.22,3.57,3.42,12.83,"<div style=""font-size:30px;"">ticket</div>",0,-0.521925403225806,6.69084227741856
"814","poaxpoan5xeq1f1c9whckjk5vpkt2pj9","condrepetition",819,"nola","animacy","repetition","l",1,11,2,"masked",0.05,"congruent",2.62,3.22,3.57,3.42,12.83,"<div style=""font-size:30px;"">bathtub</div>",0,-0.521925403225806,6.70808408385307
"815","poaxpoan5xeq1f1c9whckjk5vpkt2pj9","condrepetition",763,"nosm","animacy","repetition","l",1,12,2,"masked",0.05,"incongruent",2.62,3.22,3.57,3.42,12.83,"<div style=""font-size:30px;"">scalpel</div>",0,-0.521925403225806,6.63725803128446
"816","poaxpoan5xeq1f1c9whckjk5vpkt2pj9","condrepetition",672,"lism","animacy","repetition","k",1,13,2,"masked",0.05,"congruent",2.62,3.22,3.57,3.42,12.83,"<div style=""font-size:30px;"">dove</div>",0,-0.521925403225806,6.51025834052315
"817","poaxpoan5xeq1f1c9whckjk5vpkt2pj9","condrepetition",893,"nosm","animacy","repetition","l",1,14,2,"masked",0.05,"incongruent",2.62,3.22,3.57,3.42,12.83,"<div style=""font-size:30px;"">fork</div>",0,-0.521925403225806,6.7945865808765
"818","poaxpoan5xeq1f1c9whckjk5vpkt2pj9","condrepetition",658,"lism","animacy","repetition","k",1,15,2,"masked",0.05,"congruent",2.62,3.22,3.57,3.42,12.83,"<div style=""font-size:30px;"">fruit</div>",0,-0.521925403225806,6.48920493132532
"821","poaxpoan5xeq1f1c9whckjk5vpkt2pj9","condrepetition",798,"nosm","animacy","repetition","l",1,18,2,"masked",0.05,"incongruent",2.62,3.22,3.57,3.42,12.83,"<div style=""font-size:30px;"">coin</div>",0,-0.521925403225806,6.68210859744981
"822","poaxpoan5xeq1f1c9whckjk5vpkt2pj9","condrepetition",514,"lism","animacy","repetition","k",1,19,2,"masked",0.05,"congruent",2.62,3.22,3.57,3.42,12.83,"<div style=""font-size:30px;"">blueberry</div>",0,-0.521925403225806,6.24222326545517
"823","poaxpoan5xeq1f1c9whckjk5vpkt2pj9","condrepetition",622,"lism","animacy","repetition","k",1,20,2,"masked",0.05,"congruent",2.62,3.22,3.57,3.42,12.83,"<div style=""font-size:30px;"">cabbage</div>",0,-0.521925403225806,6.43294009273918
"824","poaxpoan5xeq1f1c9whckjk5vpkt2pj9","condrepetition",649,"lila","animacy","repetition","k",1,21,2,"masked",0.05,"incongruent",2.62,3.22,3.57,3.42,12.83,"<div style=""font-size:30px;"">monkey</div>",0,-0.521925403225806,6.47543271670409
"825","poaxpoan5xeq1f1c9whckjk5vpkt2pj9","condrepetition",681,"nola","animacy","repetition","l",1,22,2,"masked",0.05,"congruent",2.62,3.22,3.57,3.42,12.83,"<div style=""font-size:30px;"">dorm</div>",0,-0.521925403225806,6.52356230614951
"826","poaxpoan5xeq1f1c9whckjk5vpkt2pj9","condrepetition",631,"nosm","animacy","repetition","l",1,23,2,"masked",0.01,"incongruent",2.62,3.22,3.57,3.42,12.83,"<div style=""font-size:30px;"">coupon</div>",0,-0.521925403225806,6.44730586254121
"827","poaxpoan5xeq1f1c9whckjk5vpkt2pj9","condrepetition",850,"nola","animacy","repetition","l",1,24,2,"masked",0.05,"congruent",2.62,3.22,3.57,3.42,12.83,"<div style=""font-size:30px;"">saxophone</div>",0,-0.521925403225806,6.74523634948436
"828","poaxpoan5xeq1f1c9whckjk5vpkt2pj9","condrepetition",645,"nola","animacy","repetition","l",1,25,2,"masked",0.05,"congruent",2.62,3.22,3.57,3.42,12.83,"<div style=""font-size:30px;"">escalator</div>",0,-0.521925403225806,6.46925031679577
"829","poaxpoan5xeq1f1c9whckjk5vpkt2pj9","condrepetition",728,"lila","animacy","repetition","k",1,26,2,"masked",0.05,"incongruent",2.62,3.22,3.57,3.42,12.83,"<div style=""font-size:30px;"">pony</div>",0,-0.521925403225806,6.59030104819669
"830","poaxpoan5xeq1f1c9whckjk5vpkt2pj9","condrepetition",706,"lila","animacy","repetition","k",1,27,2,"masked",0.05,"incongruent",2.62,3.22,3.57,3.42,12.83,"<div style=""font-size:30px;"">walrus</div>",0,-0.521925403225806,6.55961523749324
"831","poaxpoan5xeq1f1c9whckjk5vpkt2pj9","condrepetition",855,"lila","animacy","repetition","k",1,28,2,"masked",0.05,"incongruent",2.62,3.22,3.57,3.42,12.83,"<div style=""font-size:30px;"">sheep</div>",0,-0.521925403225806,6.75110146893676
"832","poaxpoan5xeq1f1c9whckjk5vpkt2pj9","condrepetition",1027,"nola","animacy","repetition","l",1,29,2,"masked",0.01,"congruent",2.62,3.22,3.57,3.42,12.83,"<div style=""font-size:30px;"">tuba</div>",0,-0.521925403225806,6.93439720992856
"833","poaxpoan5xeq1f1c9whckjk5vpkt2pj9","condrepetition",632,"lila","animacy","repetition","k",1,30,2,"masked",0.05,"incongruent",2.62,3.22,3.57,3.42,12.83,"<div style=""font-size:30px;"">bobcat</div>",0,-0.521925403225806,6.44888939414686
"834","poaxpoan5xeq1f1c9whckjk5vpkt2pj9","condrepetition",970,"nosm","animacy","repetition","l",1,31,2,"masked",0.05,"incongruent",2.62,3.22,3.57,3.42,12.83,"<div style=""font-size:30px;"">neutron</div>",0,-0.521925403225806,6.87729607149743
"835","poaxpoan5xeq1f1c9whckjk5vpkt2pj9","condrepetition",699,"nola","animacy","repetition","l",1,32,2,"masked",0.05,"congruent",2.62,3.22,3.57,3.42,12.83,"<div style=""font-size:30px;"">sleigh</div>",0,-0.521925403225806,6.54965074223381
"836","poaxpoan5xeq1f1c9whckjk5vpkt2pj9","condrepetition",686,"lism","animacy","repetition","k",1,33,2,"masked",0.05,"congruent",2.62,3.22,3.57,3.42,12.83,"<div style=""font-size:30px;"">wasp</div>",0,-0.521925403225806,6.53087762772588
"837","poaxpoan5xeq1f1c9whckjk5vpkt2pj9","condrepetition",745,"lila","animacy","repetition","k",1,34,2,"masked",0.05,"incongruent",2.62,3.22,3.57,3.42,12.83,"<div style=""font-size:30px;"">camel</div>",0,-0.521925403225806,6.61338421837956
"838","poaxpoan5xeq1f1c9whckjk5vpkt2pj9","condrepetition",753,"nola","animacy","repetition","l",1,35,2,"masked",0.05,"congruent",2.62,3.22,3.57,3.42,12.83,"<div style=""font-size:30px;"">steamboat</div>",0,-0.521925403225806,6.62406522779989
"839","poaxpoan5xeq1f1c9whckjk5vpkt2pj9","condrepetition",690,"lism","animacy","repetition","k",1,36,2,"masked",0.05,"congruent",2.62,3.22,3.57,3.42,12.83,"<div style=""font-size:30px;"">crab</div>",0,-0.521925403225806,6.5366915975913
"840","poaxpoan5xeq1f1c9whckjk5vpkt2pj9","condrepetition",712,"nosm","animacy","repetition","l",1,37,2,"masked",0.01,"incongruent",2.62,3.22,3.57,3.42,12.83,"<div style=""font-size:30px;"">diamond</div>",0,-0.521925403225806,6.56807791141198
"841","poaxpoan5xeq1f1c9whckjk5vpkt2pj9","condrepetition",1232,"nosm","animacy","repetition","l",1,38,2,"masked",0.05,"incongruent",2.62,3.22,3.57,3.42,12.83,"<div style=""font-size:30px;"">medal</div>",0,-0.521925403225806,7.11639414409346
"842","poaxpoan5xeq1f1c9whckjk5vpkt2pj9","condrepetition",624,"lila","animacy","repetition","k",1,39,2,"masked",0.05,"incongruent",2.62,3.22,3.57,3.42,12.83,"<div style=""font-size:30px;"">panda</div>",0,-0.521925403225806,6.43615036836943
"884","poaxpoan5xeq1f1c9whckjk5vpkt2pj9","condrepetition",1157,"nola","animacy","repetition","l",1,1,3,"masked",0.01,"congruent",2.62,3.22,3.57,3.42,12.83,"<div style=""font-size:30px;"">silo</div>",0,0.478074596774194,7.05358572719368
"885","poaxpoan5xeq1f1c9whckjk5vpkt2pj9","condrepetition",827,"nola","animacy","repetition","l",1,2,3,"masked",0.05,"congruent",2.62,3.22,3.57,3.42,12.83,"<div style=""font-size:30px;"">volcano</div>",0,0.478074596774194,6.71780469502369
"886","poaxpoan5xeq1f1c9whckjk5vpkt2pj9","condrepetition",946,"nola","animacy","repetition","l",1,3,3,"masked",0.05,"congruent",2.62,3.22,3.57,3.42,12.83,"<div style=""font-size:30px;"">iceberg</div>",0,0.478074596774194,6.85224256905188
"890","poaxpoan5xeq1f1c9whckjk5vpkt2pj9","condrepetition",661,"lila","animacy","repetition","k",1,7,3,"masked",0.05,"incongruent",2.62,3.22,3.57,3.42,12.83,"<div style=""font-size:30px;"">wolf</div>",0,0.478074596774194,6.49375383985169
"891","poaxpoan5xeq1f1c9whckjk5vpkt2pj9","condrepetition",806,"lila","animacy","repetition","k",1,8,3,"masked",0.05,"incongruent",2.62,3.22,3.57,3.42,12.83,"<div style=""font-size:30px;"">beaver</div>",0,0.478074596774194,6.69208374250663
"892","poaxpoan5xeq1f1c9whckjk5vpkt2pj9","condrepetition",730,"nola","animacy","repetition","l",1,9,3,"masked",0.05,"congruent",2.62,3.22,3.57,3.42,12.83,"<div style=""font-size:30px;"">hut</div>",0,0.478074596774194,6.59304453414244
"893","poaxpoan5xeq1f1c9whckjk5vpkt2pj9","condrepetition",718,"lism","animacy","repetition","k",1,10,3,"masked",0.05,"congruent",2.62,3.22,3.57,3.42,12.83,"<div style=""font-size:30px;"">hamster</div>",0,0.478074596774194,6.57646956904822
"894","poaxpoan5xeq1f1c9whckjk5vpkt2pj9","condrepetition",832,"lism","animacy","repetition","k",1,11,3,"masked",0.05,"congruent",2.62,3.22,3.57,3.42,12.83,"<div style=""font-size:30px;"">frog</div>",0,0.478074596774194,6.72383244082121
"895","poaxpoan5xeq1f1c9whckjk5vpkt2pj9","condrepetition",743,"nosm","animacy","repetition","l",1,12,3,"masked",0.05,"incongruent",2.62,3.22,3.57,3.42,12.83,"<div style=""font-size:30px;"">keys</div>",0,0.478074596774194,6.61069604471776
"896","poaxpoan5xeq1f1c9whckjk5vpkt2pj9","condrepetition",1048,"nosm","animacy","repetition","l",1,13,3,"masked",0.05,"incongruent",2.62,3.22,3.57,3.42,12.83,"<div style=""font-size:30px;"">cork</div>",0,0.478074596774194,6.95463886488099
"897","poaxpoan5xeq1f1c9whckjk5vpkt2pj9","condrepetition",738,"nola","animacy","repetition","l",1,14,3,"masked",0.05,"congruent",2.62,3.22,3.57,3.42,12.83,"<div style=""font-size:30px;"">motel</div>",0,0.478074596774194,6.60394382460047
"899","poaxpoan5xeq1f1c9whckjk5vpkt2pj9","condrepetition",692,"nosm","animacy","repetition","l",1,16,3,"masked",0.05,"incongruent",2.62,3.22,3.57,3.42,12.83,"<div style=""font-size:30px;"">sock</div>",0,0.478074596774194,6.53958595561767
"900","poaxpoan5xeq1f1c9whckjk5vpkt2pj9","condrepetition",1074,"nola","animacy","repetition","l",1,17,3,"masked",0.05,"congruent",2.62,3.22,3.57,3.42,12.83,"<div style=""font-size:30px;"">ferry</div>",0,0.478074596774194,6.97914527506881
"901","poaxpoan5xeq1f1c9whckjk5vpkt2pj9","condrepetition",725,"nosm","animacy","repetition","l",1,18,3,"masked",0.01,"incongruent",2.62,3.22,3.57,3.42,12.83,"<div style=""font-size:30px;"">wrench</div>",0,0.478074596774194,6.58617165485467
"903","poaxpoan5xeq1f1c9whckjk5vpkt2pj9","condrepetition",860,"lism","animacy","repetition","k",1,20,3,"masked",0.05,"congruent",2.62,3.22,3.57,3.42,12.83,"<div style=""font-size:30px;"">cauliflower</div>",0,0.478074596774194,6.75693238924755
"904","poaxpoan5xeq1f1c9whckjk5vpkt2pj9","condrepetition",788,"nosm","animacy","repetition","l",1,21,3,"masked",0.05,"incongruent",2.62,3.22,3.57,3.42,12.83,"<div style=""font-size:30px;"">toothbrush</div>",0,0.478074596774194,6.66949808985788
"905","poaxpoan5xeq1f1c9whckjk5vpkt2pj9","condrepetition",595,"lila","animacy","repetition","k",1,22,3,"masked",0.05,"incongruent",2.62,3.22,3.57,3.42,12.83,"<div style=""font-size:30px;"">lion</div>",0,0.478074596774194,6.38856140554563
"906","poaxpoan5xeq1f1c9whckjk5vpkt2pj9","condrepetition",709,"nola","animacy","repetition","l",1,23,3,"masked",0.05,"congruent",2.62,3.22,3.57,3.42,12.83,"<div style=""font-size:30px;"">cab</div>",0,0.478074596774194,6.56385552653213
"907","poaxpoan5xeq1f1c9whckjk5vpkt2pj9","condrepetition",609,"lila","animacy","repetition","k",1,24,3,"masked",0.05,"incongruent",2.62,3.22,3.57,3.42,12.83,"<div style=""font-size:30px;"">dog</div>",0,0.478074596774194,6.4118182677099
"908","poaxpoan5xeq1f1c9whckjk5vpkt2pj9","condrepetition",695,"nola","animacy","repetition","l",1,25,3,"masked",0.05,"congruent",2.62,3.22,3.57,3.42,12.83,"<div style=""font-size:30px;"">balcony</div>",0,0.478074596774194,6.54391184556479
"909","poaxpoan5xeq1f1c9whckjk5vpkt2pj9","condrepetition",988,"nola","animacy","repetition","l",1,26,3,"masked",0.05,"congruent",2.62,3.22,3.57,3.42,12.83,"<div style=""font-size:30px;"">oven</div>",0,0.478074596774194,6.89568269774787
"910","poaxpoan5xeq1f1c9whckjk5vpkt2pj9","condrepetition",1230,"lism","animacy","repetition","k",1,27,3,"masked",0.05,"congruent",2.62,3.22,3.57,3.42,12.83,"<div style=""font-size:30px;"">algae</div>",0,0.478074596774194,7.11476944836646
"911","poaxpoan5xeq1f1c9whckjk5vpkt2pj9","condrepetition",815,"lila","animacy","repetition","k",1,28,3,"masked",0.05,"incongruent",2.62,3.22,3.57,3.42,12.83,"<div style=""font-size:30px;"">baboon</div>",0,0.478074596774194,6.70318811324086
"912","poaxpoan5xeq1f1c9whckjk5vpkt2pj9","condrepetition",594,"nosm","animacy","repetition","l",1,29,3,"masked",0.05,"incongruent",2.62,3.22,3.57,3.42,12.83,"<div style=""font-size:30px;"">candle</div>",0,0.478074596774194,6.38687931936265
"913","poaxpoan5xeq1f1c9whckjk5vpkt2pj9","condrepetition",861,"nola","animacy","repetition","l",1,30,3,"masked",0.05,"congruent",2.62,3.22,3.57,3.42,12.83,"<div style=""font-size:30px;"">kite</div>",0,0.478074596774194,6.75809450442773
"914","poaxpoan5xeq1f1c9whckjk5vpkt2pj9","condrepetition",847,"lila","animacy","repetition","k",1,31,3,"masked",0.01,"incongruent",2.62,3.22,3.57,3.42,12.83,"<div style=""font-size:30px;"">stallion</div>",0,0.478074596774194,6.74170069465205
"915","poaxpoan5xeq1f1c9whckjk5vpkt2pj9","condrepetition",1046,"lism","animacy","repetition","k",1,32,3,"masked",0.05,"congruent",2.62,3.22,3.57,3.42,12.83,"<div style=""font-size:30px;"">cockatoo</div>",0,0.478074596774194,6.95272864462487
"917","poaxpoan5xeq1f1c9whckjk5vpkt2pj9","condrepetition",681,"lism","animacy","repetition","k",1,34,3,"masked",0.05,"congruent",2.62,3.22,3.57,3.42,12.83,"<div style=""font-size:30px;"">crow</div>",0,0.478074596774194,6.52356230614951
"918","poaxpoan5xeq1f1c9whckjk5vpkt2pj9","condrepetition",792,"lism","animacy","repetition","k",1,35,3,"masked",0.05,"congruent",2.62,3.22,3.57,3.42,12.83,"<div style=""font-size:30px;"">parsley</div>",0,0.478074596774194,6.67456139181443
"921","poaxpoan5xeq1f1c9whckjk5vpkt2pj9","condrepetition",886,"nosm","animacy","repetition","l",1,38,3,"masked",0.05,"incongruent",2.62,3.22,3.57,3.42,12.83,"<div style=""font-size:30px;"">compass</div>",0,0.478074596774194,6.78671695060508
"922","poaxpoan5xeq1f1c9whckjk5vpkt2pj9","condrepetition",1034,"lism","animacy","repetition","k",1,39,3,"masked",0.05,"congruent",2.62,3.22,3.57,3.42,12.83,"<div style=""font-size:30px;"">apple</div>",0,0.478074596774194,6.94119005506837
"964","poaxpoan5xeq1f1c9whckjk5vpkt2pj9","condrepetition",1223,"lism","animacy","repetition","k",1,1,4,"masked",0.05,"congruent",2.62,3.22,3.57,3.42,12.83,"<div style=""font-size:30px;"">grape</div>",0,1.47807459677419,7.10906213568717
"965","poaxpoan5xeq1f1c9whckjk5vpkt2pj9","condrepetition",809,"nola","animacy","repetition","l",1,2,4,"masked",0.05,"congruent",2.62,3.22,3.57,3.42,12.83,"<div style=""font-size:30px;"">limousine</div>",0,1.47807459677419,6.69579891705849
"966","poaxpoan5xeq1f1c9whckjk5vpkt2pj9","condrepetition",636,"nola","animacy","repetition","l",1,3,4,"masked",0.05,"congruent",2.62,3.22,3.57,3.42,12.83,"<div style=""font-size:30px;"">vault</div>",0,1.47807459677419,6.45519856334012
"969","poaxpoan5xeq1f1c9whckjk5vpkt2pj9","condrepetition",734,"nosm","animacy","repetition","l",1,6,4,"masked",0.05,"incongruent",2.62,3.22,3.57,3.42,12.83,"<div style=""font-size:30px;"">stamp</div>",0,1.47807459677419,6.59850902861452
"970","poaxpoan5xeq1f1c9whckjk5vpkt2pj9","condrepetition",756,"nosm","animacy","repetition","l",1,7,4,"masked",0.05,"incongruent",2.62,3.22,3.57,3.42,12.83,"<div style=""font-size:30px;"">sandal</div>",0,1.47807459677419,6.62804137617953
"971","poaxpoan5xeq1f1c9whckjk5vpkt2pj9","condrepetition",703,"lila","animacy","repetition","k",1,8,4,"masked",0.05,"incongruent",2.62,3.22,3.57,3.42,12.83,"<div style=""font-size:30px;"">elk</div>",0,1.47807459677419,6.55535689181067
"972","poaxpoan5xeq1f1c9whckjk5vpkt2pj9","condrepetition",748,"nosm","animacy","repetition","l",1,9,4,"masked",0.05,"incongruent",2.62,3.22,3.57,3.42,12.83,"<div style=""font-size:30px;"">crayon</div>",0,1.47807459677419,6.61740297797448
"973","poaxpoan5xeq1f1c9whckjk5vpkt2pj9","condrepetition",529,"lism","animacy","repetition","k",1,10,4,"masked",0.05,"congruent",2.62,3.22,3.57,3.42,12.83,"<div style=""font-size:30px;"">peach</div>",0,1.47807459677419,6.2709884318583
"974","poaxpoan5xeq1f1c9whckjk5vpkt2pj9","condrepetition",664,"nola","animacy","repetition","l",1,11,4,"masked",0.01,"congruent",2.62,3.22,3.57,3.42,12.83,"<div style=""font-size:30px;"">ambulance</div>",0,1.47807459677419,6.49828214947643
"975","poaxpoan5xeq1f1c9whckjk5vpkt2pj9","condrepetition",580,"lila","animacy","repetition","k",1,12,4,"masked",0.05,"incongruent",2.62,3.22,3.57,3.42,12.83,"<div style=""font-size:30px;"">gazelle</div>",0,1.47807459677419,6.36302810354046
"976","poaxpoan5xeq1f1c9whckjk5vpkt2pj9","condrepetition",980,"lism","animacy","repetition","k",1,13,4,"masked",0.05,"congruent",2.62,3.22,3.57,3.42,12.83,"<div style=""font-size:30px;"">caterpillar</div>",0,1.47807459677419,6.88755257166462
"977","poaxpoan5xeq1f1c9whckjk5vpkt2pj9","condrepetition",706,"lila","animacy","repetition","k",1,14,4,"masked",0.05,"incongruent",2.62,3.22,3.57,3.42,12.83,"<div style=""font-size:30px;"">wolverine</div>",0,1.47807459677419,6.55961523749324
"978","poaxpoan5xeq1f1c9whckjk5vpkt2pj9","condrepetition",669,"nosm","animacy","repetition","l",1,15,4,"masked",0.05,"incongruent",2.62,3.22,3.57,3.42,12.83,"<div style=""font-size:30px;"">screwdriver</div>",0,1.47807459677419,6.50578406012823
"979","poaxpoan5xeq1f1c9whckjk5vpkt2pj9","condrepetition",731,"nola","animacy","repetition","l",1,16,4,"masked",0.05,"congruent",2.62,3.22,3.57,3.42,12.83,"<div style=""font-size:30px;"">motorcycle</div>",0,1.47807459677419,6.59441345974978
"980","poaxpoan5xeq1f1c9whckjk5vpkt2pj9","condrepetition",684,"nola","animacy","repetition","l",1,17,4,"masked",0.05,"congruent",2.62,3.22,3.57,3.42,12.83,"<div style=""font-size:30px;"">chimney</div>",0,1.47807459677419,6.52795791762255
"981","poaxpoan5xeq1f1c9whckjk5vpkt2pj9","condrepetition",762,"lism","animacy","repetition","k",1,18,4,"masked",0.05,"congruent",2.62,3.22,3.57,3.42,12.83,"<div style=""font-size:30px;"">bacteria</div>",0,1.47807459677419,6.63594655568665
"982","poaxpoan5xeq1f1c9whckjk5vpkt2pj9","condrepetition",637,"lism","animacy","repetition","k",1,19,4,"masked",0.05,"congruent",2.62,3.22,3.57,3.42,12.83,"<div style=""font-size:30px;"">newt</div>",0,1.47807459677419,6.45676965557216
"983","poaxpoan5xeq1f1c9whckjk5vpkt2pj9","condrepetition",628,"lism","animacy","repetition","k",1,20,4,"masked",0.05,"congruent",2.62,3.22,3.57,3.42,12.83,"<div style=""font-size:30px;"">lice</div>",0,1.47807459677419,6.4425401664682
"984","poaxpoan5xeq1f1c9whckjk5vpkt2pj9","condrepetition",500,"lila","animacy","repetition","k",1,21,4,"masked",0.05,"incongruent",2.62,3.22,3.57,3.42,12.83,"<div style=""font-size:30px;"">dolphin</div>",0,1.47807459677419,6.21460809842219
"985","poaxpoan5xeq1f1c9whckjk5vpkt2pj9","condrepetition",534,"lila","animacy","repetition","k",1,22,4,"masked",0.05,"incongruent",2.62,3.22,3.57,3.42,12.83,"<div style=""font-size:30px;"">reindeer</div>",0,1.47807459677419,6.2803958389602
"986","poaxpoan5xeq1f1c9whckjk5vpkt2pj9","condrepetition",617,"nosm","animacy","repetition","l",1,23,4,"masked",0.05,"incongruent",2.62,3.22,3.57,3.42,12.83,"<div style=""font-size:30px;"">glove</div>",0,1.47807459677419,6.42486902390539
"987","poaxpoan5xeq1f1c9whckjk5vpkt2pj9","condrepetition",755,"nosm","animacy","repetition","l",1,24,4,"masked",0.05,"incongruent",2.62,3.22,3.57,3.42,12.83,"<div style=""font-size:30px;"">emerald</div>",0,1.47807459677419,6.62671774924902
"988","poaxpoan5xeq1f1c9whckjk5vpkt2pj9","condrepetition",767,"nola","animacy","repetition","l",1,25,4,"masked",0.05,"congruent",2.62,3.22,3.57,3.42,12.83,"<div style=""font-size:30px;"">asteroid</div>",0,1.47807459677419,6.64248680136726
"989","poaxpoan5xeq1f1c9whckjk5vpkt2pj9","condrepetition",965,"nosm","animacy","repetition","l",1,26,4,"masked",0.01,"incongruent",2.62,3.22,3.57,3.42,12.83,"<div style=""font-size:30px;"">mitten</div>",0,1.47807459677419,6.87212810133899
"990","poaxpoan5xeq1f1c9whckjk5vpkt2pj9","condrepetition",833,"lism","animacy","repetition","k",1,27,4,"masked",0.05,"congruent",2.62,3.22,3.57,3.42,12.83,"<div style=""font-size:30px;"">hornet</div>",0,1.47807459677419,6.72503364216684
"991","poaxpoan5xeq1f1c9whckjk5vpkt2pj9","condrepetition",776,"lism","animacy","repetition","k",1,28,4,"masked",0.05,"congruent",2.62,3.22,3.57,3.42,12.83,"<div style=""font-size:30px;"">butterfly</div>",0,1.47807459677419,6.65415252018322
"992","poaxpoan5xeq1f1c9whckjk5vpkt2pj9","condrepetition",773,"lism","animacy","repetition","k",1,29,4,"masked",0.05,"congruent",2.62,3.22,3.57,3.42,12.83,"<div style=""font-size:30px;"">grasshopper</div>",0,1.47807459677419,6.65027904858742
"993","poaxpoan5xeq1f1c9whckjk5vpkt2pj9","condrepetition",852,"nola","animacy","repetition","l",1,30,4,"masked",0.05,"congruent",2.62,3.22,3.57,3.42,12.83,"<div style=""font-size:30px;"">windmill</div>",0,1.47807459677419,6.74758652682932
"994","poaxpoan5xeq1f1c9whckjk5vpkt2pj9","condrepetition",1212,"nola","animacy","repetition","l",1,31,4,"masked",0.05,"congruent",2.62,3.22,3.57,3.42,12.83,"<div style=""font-size:30px;"">booth</div>",0,1.47807459677419,7.10002716662926
"995","poaxpoan5xeq1f1c9whckjk5vpkt2pj9","condrepetition",729,"lila","animacy","repetition","k",1,32,4,"masked",0.05,"incongruent",2.62,3.22,3.57,3.42,12.83,"<div style=""font-size:30px;"">cow</div>",0,1.47807459677419,6.59167373200866
"996","poaxpoan5xeq1f1c9whckjk5vpkt2pj9","condrepetition",757,"nosm","animacy","repetition","l",1,33,4,"masked",0.05,"incongruent",2.62,3.22,3.57,3.42,12.83,"<div style=""font-size:30px;"">pin</div>",0,1.47807459677419,6.62936325343745
"997","poaxpoan5xeq1f1c9whckjk5vpkt2pj9","condrepetition",725,"lila","animacy","repetition","k",1,34,4,"masked",0.05,"incongruent",2.62,3.22,3.57,3.42,12.83,"<div style=""font-size:30px;"">pig</div>",0,1.47807459677419,6.58617165485467
"998","poaxpoan5xeq1f1c9whckjk5vpkt2pj9","condrepetition",711,"nosm","animacy","repetition","l",1,35,4,"masked",0.05,"incongruent",2.62,3.22,3.57,3.42,12.83,"<div style=""font-size:30px;"">knot</div>",0,1.47807459677419,6.56667242980324
"1000","poaxpoan5xeq1f1c9whckjk5vpkt2pj9","condrepetition",713,"nola","animacy","repetition","l",1,37,4,"masked",0.01,"congruent",2.62,3.22,3.57,3.42,12.83,"<div style=""font-size:30px;"">dungeon</div>",0,1.47807459677419,6.5694814204143
"1001","poaxpoan5xeq1f1c9whckjk5vpkt2pj9","condrepetition",960,"nola","animacy","repetition","l",1,38,4,"masked",0.05,"congruent",2.62,3.22,3.57,3.42,12.83,"<div style=""font-size:30px;"">jet</div>",0,1.47807459677419,6.86693328446188
"1002","poaxpoan5xeq1f1c9whckjk5vpkt2pj9","condrepetition",688,"lila","animacy","repetition","k",1,39,4,"masked",0.01,"incongruent",2.62,3.22,3.57,3.42,12.83,"<div style=""font-size:30px;"">eagle</div>",0,1.47807459677419,6.53378883793334
"1057","k7k4t9v5vrzhxyxcr2ae52abqcl7ufta","condrepetition",699,"nola","size","repetition","l",1,2,1,"masked",0.05,"congruent",3.37,3.42,3.27,3.43,13.49,"<div style=""font-size:30px;"">glacier</div>",0,-1.52192540322581,6.54965074223381
"1058","k7k4t9v5vrzhxyxcr2ae52abqcl7ufta","condrepetition",695,"lism","size","repetition","k",1,3,1,"masked",0.01,"congruent",3.37,3.42,3.27,3.43,13.49,"<div style=""font-size:30px;"">beetle</div>",0,-1.52192540322581,6.54391184556479
"1059","k7k4t9v5vrzhxyxcr2ae52abqcl7ufta","condrepetition",640,"lism","size","repetition","k",1,4,1,"masked",0.05,"congruent",3.37,3.42,3.27,3.43,13.49,"<div style=""font-size:30px;"">tulip</div>",0,-1.52192540322581,6.46146817635372
"1060","k7k4t9v5vrzhxyxcr2ae52abqcl7ufta","condrepetition",659,"nola","size","repetition","l",1,5,1,"masked",0.05,"congruent",3.37,3.42,3.27,3.43,13.49,"<div style=""font-size:30px;"">steamboat</div>",0,-1.52192540322581,6.49072353450251
"1061","k7k4t9v5vrzhxyxcr2ae52abqcl7ufta","condrepetition",980,"lila","size","repetition","l",1,6,1,"masked",0.05,"incongruent",3.37,3.42,3.27,3.43,13.49,"<div style=""font-size:30px;"">baboon</div>",0,-1.52192540322581,6.88755257166462
"1062","k7k4t9v5vrzhxyxcr2ae52abqcl7ufta","condrepetition",648,"lism","size","repetition","k",1,7,1,"masked",0.01,"congruent",3.37,3.42,3.27,3.43,13.49,"<div style=""font-size:30px;"">rat</div>",0,-1.52192540322581,6.47389069635227
"1064","k7k4t9v5vrzhxyxcr2ae52abqcl7ufta","condrepetition",822,"lism","size","repetition","k",1,9,1,"masked",0.05,"congruent",3.37,3.42,3.27,3.43,13.49,"<div style=""font-size:30px;"">dove</div>",0,-1.52192540322581,6.71174039505618
"1065","k7k4t9v5vrzhxyxcr2ae52abqcl7ufta","condrepetition",871,"lism","size","repetition","k",1,10,1,"masked",0.05,"congruent",3.37,3.42,3.27,3.43,13.49,"<div style=""font-size:30px;"">salamander</div>",0,-1.52192540322581,6.7696419768525
"1066","k7k4t9v5vrzhxyxcr2ae52abqcl7ufta","condrepetition",667,"nola","size","repetition","l",1,11,1,"masked",0.05,"congruent",3.37,3.42,3.27,3.43,13.49,"<div style=""font-size:30px;"">iceberg</div>",0,-1.52192540322581,6.50279004591562
"1067","k7k4t9v5vrzhxyxcr2ae52abqcl7ufta","condrepetition",717,"lism","size","repetition","k",1,12,1,"masked",0.01,"congruent",3.37,3.42,3.27,3.43,13.49,"<div style=""font-size:30px;"">newt</div>",0,-1.52192540322581,6.57507584059962
"1068","k7k4t9v5vrzhxyxcr2ae52abqcl7ufta","condrepetition",696,"lism","size","repetition","k",1,13,1,"masked",0.05,"congruent",3.37,3.42,3.27,3.43,13.49,"<div style=""font-size:30px;"">spinach</div>",0,-1.52192540322581,6.54534966033442
"1069","k7k4t9v5vrzhxyxcr2ae52abqcl7ufta","condrepetition",653,"nosm","size","repetition","k",1,14,1,"masked",0.05,"incongruent",3.37,3.42,3.27,3.43,13.49,"<div style=""font-size:30px;"">chalk</div>",0,-1.52192540322581,6.48157712927643
"1070","k7k4t9v5vrzhxyxcr2ae52abqcl7ufta","condrepetition",932,"nola","size","repetition","l",1,15,1,"masked",0.01,"congruent",3.37,3.42,3.27,3.43,13.49,"<div style=""font-size:30px;"">garage</div>",0,-1.52192540322581,6.83733281468559
"1072","k7k4t9v5vrzhxyxcr2ae52abqcl7ufta","condrepetition",576,"nosm","size","repetition","k",1,17,1,"masked",0.05,"incongruent",3.37,3.42,3.27,3.43,13.49,"<div style=""font-size:30px;"">soap</div>",0,-1.52192540322581,6.35610766069589
"1073","k7k4t9v5vrzhxyxcr2ae52abqcl7ufta","condrepetition",723,"lism","size","repetition","k",1,18,1,"masked",0.05,"congruent",3.37,3.42,3.27,3.43,13.49,"<div style=""font-size:30px;"">parsley</div>",0,-1.52192540322581,6.58340922215876
