"","subjID","group","rt","category","choice","transition_new","tarresp","correcttarresp","trialnr","blocknr","phase","reward","congruency","payout1","payout2","payout3","payout4","totalpayout","stimulus","rtoutlier","centered_blocknr","log_rt","switch_rate"
"1","1el19x07ccazkn1alzpv6rlbd0n7zdxq","condswitch",1024,"lism","animacy","repetition","d",1,1,1,"masked",0.01,"incongruent",2.47,2.34,2.14,2.43,9.38,"<div style=""font-size:30px;"">grasshopper</div>",0,-1.52192540322581,6.93147180559945,0.472972972972973
"2","1el19x07ccazkn1alzpv6rlbd0n7zdxq","condswitch",1555,"lila","animacy","repetition","d",1,2,1,"masked",0.01,"congruent",2.47,2.34,2.14,2.43,9.38,"<div style=""font-size:30px;"">porpoise</div>",0,-1.52192540322581,7.34923082461333,0.472972972972973
"3","1el19x07ccazkn1alzpv6rlbd0n7zdxq","condswitch",1073,"nosm","size","switch","k",1,3,1,"masked",0.05,"congruent",2.47,2.34,2.14,2.43,9.38,"<div style=""font-size:30px;"">fork</div>",0,-1.52192540322581,6.9782137426307,0.472972972972973
"4","1el19x07ccazkn1alzpv6rlbd0n7zdxq","condswitch",1279,"nosm","size","switch","k",1,6,1,"masked",0.05,"congruent",2.47,2.34,2.14,2.43,9.38,"<div style=""font-size:30px;"">stamp</div>",0,-1.52192540322581,7.15383380157884,0.472972972972973
"5","1el19x07ccazkn1alzpv6rlbd0n7zdxq","condswitch",1115,"nola","size","repetition","l",1,7,1,"masked",0.01,"incongruent",2.47,2.34,2.14,2.43,9.38,"<div style=""font-size:30px;"">galaxy</div>",0,-1.52192540322581,7.01660968389422,0.472972972972973
"6","1el19x07ccazkn1alzpv6rlbd0n7zdxq","condswitch",1220,"nosm","size","repetition","k",1,10,1,"masked",0.01,"congruent",2.47,2.34,2.14,2.43,9.38,"<div style=""font-size:30px;"">neutron</div>",0,-1.52192540322581,7.1066061377273,0.472972972972973
"7","1el19x07ccazkn1alzpv6rlbd0n7zdxq","condswitch",1618,"nola","animacy","switch","s",1,11,1,"masked",0.05,"incongruent",2.47,2.34,2.14,2.43,9.38,"<div style=""font-size:30px;"">stretcher</div>",0,-1.52192540322581,7.38894609761844,0.472972972972973
"8","1el19x07ccazkn1alzpv6rlbd0n7zdxq","condswitch",1024,"nosm","size","switch","k",1,12,1,"masked",0.05,"congruent",2.47,2.34,2.14,2.43,9.38,"<div style=""font-size:30px;"">thimble</div>",0,-1.52192540322581,6.93147180559945,0.472972972972973
"9","1el19x07ccazkn1alzpv6rlbd0n7zdxq","condswitch",1309,"nosm","animacy","switch","s",1,13,1,"masked",0.05,"congruent",2.47,2.34,2.14,2.43,9.38,"<div style=""font-size:30px;"">bandage</div>",0,-1.52192540322581,7.1770187659099,0.472972972972973
"10","1el19x07ccazkn1alzpv6rlbd0n7zdxq","condswitch",1320,"lila","animacy","repetition","d",1,14,1,"masked",0.01,"congruent",2.47,2.34,2.14,2.43,9.38,"<div style=""font-size:30px;"">beast</div>",0,-1.52192540322581,7.18538701558042,0.472972972972973
"11","1el19x07ccazkn1alzpv6rlbd0n7zdxq","condswitch",1381,"nosm","animacy","repetition","s",1,15,1,"masked",0.01,"congruent",2.47,2.34,2.14,2.43,9.38,"<div style=""font-size:30px;"">chopsticks</div>",0,-1.52192540322581,7.23056315340929,0.472972972972973
"12","1el19x07ccazkn1alzpv6rlbd0n7zdxq","condswitch",1879,"lism","size","switch","k",1,16,1,"masked",0.05,"incongruent",2.47,2.34,2.14,2.43,9.38,"<div style=""font-size:30px;"">mushroom</div>",0,-1.52192540322581,7.53849499941346,0.472972972972973
"13","1el19x07ccazkn1alzpv6rlbd0n7zdxq","condswitch",905,"lila","animacy","switch","d",1,17,1,"masked",0.01,"congruent",2.47,2.34,2.14,2.43,9.38,"<div style=""font-size:30px;"">deer</div>",0,-1.52192540322581,6.80793494369993,0.472972972972973
"14","1el19x07ccazkn1alzpv6rlbd0n7zdxq","condswitch",930,"lism","animacy","repetition","d",1,18,1,"masked",0.01,"incongruent",2.47,2.34,2.14,2.43,9.38,"<div style=""font-size:30px;"">crab</div>",0,-1.52192540322581,6.8351845861473,0.472972972972973
"15","1el19x07ccazkn1alzpv6rlbd0n7zdxq","condswitch",1721,"nosm","animacy","repetition","s",1,19,1,"masked",0.01,"congruent",2.47,2.34,2.14,2.43,9.38,"<div style=""font-size:30px;"">receipt</div>",0,-1.52192540322581,7.45066079621154,0.472972972972973
"16","1el19x07ccazkn1alzpv6rlbd0n7zdxq","condswitch",832,"lila","animacy","repetition","d",1,20,1,"masked",0.01,"congruent",2.47,2.34,2.14,2.43,9.38,"<div style=""font-size:30px;"">leopard</div>",0,-1.52192540322581,6.72383244082121,0.472972972972973
"17","1el19x07ccazkn1alzpv6rlbd0n7zdxq","condswitch",1250,"nosm","animacy","repetition","s",1,21,1,"masked",0.01,"congruent",2.47,2.34,2.14,2.43,9.38,"<div style=""font-size:30px;"">dice</div>",0,-1.52192540322581,7.13089883029635,0.472972972972973
"18","1el19x07ccazkn1alzpv6rlbd0n7zdxq","condswitch",1456,"lism","size","switch","k",1,22,1,"masked",0.05,"incongruent",2.47,2.34,2.14,2.43,9.38,"<div style=""font-size:30px;"">olive</div>",0,-1.52192540322581,7.28344822875663,0.472972972972973
"19","1el19x07ccazkn1alzpv6rlbd0n7zdxq","condswitch",1296,"lism","animacy","switch","d",1,23,1,"masked",0.01,"incongruent",2.47,2.34,2.14,2.43,9.38,"<div style=""font-size:30px;"">hornet</div>",0,-1.52192540322581,7.16703787691222,0.472972972972973
"20","1el19x07ccazkn1alzpv6rlbd0n7zdxq","condswitch",1395,"nosm","size","switch","k",1,24,1,"masked",0.05,"congruent",2.47,2.34,2.14,2.43,9.38,"<div style=""font-size:30px;"">dime</div>",0,-1.52192540322581,7.24064969425547,0.472972972972973
"21","1el19x07ccazkn1alzpv6rlbd0n7zdxq","condswitch",1229,"nola","animacy","switch","s",1,25,1,"masked",0.05,"incongruent",2.47,2.34,2.14,2.43,9.38,"<div style=""font-size:30px;"">kite</div>",0,-1.52192540322581,7.11395610956603,0.472972972972973
"22","1el19x07ccazkn1alzpv6rlbd0n7zdxq","condswitch",1095,"lila","animacy","repetition","d",1,26,1,"masked",0.01,"congruent",2.47,2.34,2.14,2.43,9.38,"<div style=""font-size:30px;"">swan</div>",0,-1.52192540322581,6.9985096422506,0.472972972972973
"23","1el19x07ccazkn1alzpv6rlbd0n7zdxq","condswitch",1529,"nola","size","switch","l",1,27,1,"masked",0.01,"incongruent",2.47,2.34,2.14,2.43,9.38,"<div style=""font-size:30px;"">alley</div>",0,-1.52192540322581,7.33236920592906,0.472972972972973
"24","1el19x07ccazkn1alzpv6rlbd0n7zdxq","condswitch",868,"lila","animacy","switch","d",1,28,1,"masked",0.05,"congruent",2.47,2.34,2.14,2.43,9.38,"<div style=""font-size:30px;"">monkey</div>",0,-1.52192540322581,6.76619171466035,0.472972972972973
"25","1el19x07ccazkn1alzpv6rlbd0n7zdxq","condswitch",865,"lila","animacy","repetition","d",1,29,1,"masked",0.01,"congruent",2.47,2.34,2.14,2.43,9.38,"<div style=""font-size:30px;"">penguin</div>",0,-1.52192540322581,6.76272950693188,0.472972972972973
"26","1el19x07ccazkn1alzpv6rlbd0n7zdxq","condswitch",726,"lism","animacy","repetition","d",1,30,1,"masked",0.01,"incongruent",2.47,2.34,2.14,2.43,9.38,"<div style=""font-size:30px;"">kitten</div>",0,-1.52192540322581,6.5875500148248,0.472972972972973
"27","1el19x07ccazkn1alzpv6rlbd0n7zdxq","condswitch",700,"lila","animacy","repetition","d",1,31,1,"masked",0.01,"congruent",2.47,2.34,2.14,2.43,9.38,"<div style=""font-size:30px;"">cheetah</div>",0,-1.52192540322581,6.5510803350434,0.472972972972973
"28","1el19x07ccazkn1alzpv6rlbd0n7zdxq","condswitch",1520,"nola","animacy","repetition","s",1,32,1,"masked",0.05,"incongruent",2.47,2.34,2.14,2.43,9.38,"<div style=""font-size:30px;"">dryer</div>",0,-1.52192540322581,7.32646561384032,0.472972972972973
"29","1el19x07ccazkn1alzpv6rlbd0n7zdxq","condswitch",1227,"lism","size","switch","k",1,33,1,"masked",0.05,"incongruent",2.47,2.34,2.14,2.43,9.38,"<div style=""font-size:30px;"">cherry</div>",0,-1.52192540322581,7.11232744471091,0.472972972972973
"30","1el19x07ccazkn1alzpv6rlbd0n7zdxq","condswitch",914,"lism","animacy","switch","d",1,34,1,"masked",0.05,"incongruent",2.47,2.34,2.14,2.43,9.38,"<div style=""font-size:30px;"">newt</div>",0,-1.52192540322581,6.81783057145415,0.472972972972973
"31","1el19x07ccazkn1alzpv6rlbd0n7zdxq","condswitch",1369,"nola","animacy","repetition","s",1,35,1,"masked",0.01,"incongruent",2.47,2.34,2.14,2.43,9.38,"<div style=""font-size:30px;"">sofa</div>",0,-1.52192540322581,7.22183582528845,0.472972972972973
"32","1el19x07ccazkn1alzpv6rlbd0n7zdxq","condswitch",1012,"nola","size","switch","l",1,36,1,"masked",0.05,"incongruent",2.47,2.34,2.14,2.43,9.38,"<div style=""font-size:30px;"">asteroid</div>",0,-1.52192540322581,6.91968384984741,0.472972972972973
"33","1el19x07ccazkn1alzpv6rlbd0n7zdxq","condswitch",1942,"nola","size","repetition","l",1,37,1,"masked",0.01,"incongruent",2.47,2.34,2.14,2.43,9.38,"<div style=""font-size:30px;"">sleigh</div>",0,-1.52192540322581,7.57147364885127,0.472972972972973
"34","1el19x07ccazkn1alzpv6rlbd0n7zdxq","condswitch",1561,"nola","animacy","switch","s",1,38,1,"masked",0.05,"incongruent",2.47,2.34,2.14,2.43,9.38,"<div style=""font-size:30px;"">couch</div>",0,-1.52192540322581,7.35308192051543,0.472972972972973
"35","1el19x07ccazkn1alzpv6rlbd0n7zdxq","condswitch",1245,"lism","size","switch","k",1,39,1,"masked",0.05,"incongruent",2.47,2.34,2.14,2.43,9.38,"<div style=""font-size:30px;"">blueberry</div>",0,-1.52192540322581,7.12689080889881,0.472972972972973
"36","1el19x07ccazkn1alzpv6rlbd0n7zdxq","condswitch",1163,"nosm","size","repetition","k",1,1,2,"masked",0.01,"congruent",2.47,2.34,2.14,2.43,9.38,"<div style=""font-size:30px;"">pliers</div>",0,-0.521925403225806,7.05875815251866,0.472972972972973
"37","1el19x07ccazkn1alzpv6rlbd0n7zdxq","condswitch",894,"lism","size","repetition","k",1,2,2,"masked",0.01,"incongruent",2.47,2.34,2.14,2.43,9.38,"<div style=""font-size:30px;"">germ</div>",0,-0.521925403225806,6.79570577517351,0.472972972972973
"38","1el19x07ccazkn1alzpv6rlbd0n7zdxq","condswitch",1351,"nosm","size","repetition","k",1,3,2,"masked",0.01,"congruent",2.47,2.34,2.14,2.43,9.38,"<div style=""font-size:30px;"">knob</div>",0,-0.521925403225806,7.2086003379602,0.472972972972973
"39","1el19x07ccazkn1alzpv6rlbd0n7zdxq","condswitch",773,"lila","animacy","switch","d",1,4,2,"masked",0.05,"congruent",2.47,2.34,2.14,2.43,9.38,"<div style=""font-size:30px;"">shark</div>",0,-0.521925403225806,6.65027904858742,0.472972972972973
"40","1el19x07ccazkn1alzpv6rlbd0n7zdxq","condswitch",1326,"lism","size","switch","k",1,5,2,"masked",0.05,"incongruent",2.47,2.34,2.14,2.43,9.38,"<div style=""font-size:30px;"">orange</div>",0,-0.521925403225806,7.18992217074581,0.472972972972973
"41","1el19x07ccazkn1alzpv6rlbd0n7zdxq","condswitch",1109,"nosm","size","repetition","k",1,6,2,"masked",0.01,"congruent",2.47,2.34,2.14,2.43,9.38,"<div style=""font-size:30px;"">penny</div>",0,-0.521925403225806,7.01121398735037,0.472972972972973
"42","1el19x07ccazkn1alzpv6rlbd0n7zdxq","condswitch",949,"lism","size","repetition","k",1,7,2,"masked",0.01,"incongruent",2.47,2.34,2.14,2.43,9.38,"<div style=""font-size:30px;"">apricot</div>",0,-0.521925403225806,6.85540879860993,0.472972972972973
"43","1el19x07ccazkn1alzpv6rlbd0n7zdxq","condswitch",828,"lila","animacy","switch","d",1,8,2,"masked",0.05,"congruent",2.47,2.34,2.14,2.43,9.38,"<div style=""font-size:30px;"">moose</div>",0,-0.521925403225806,6.71901315438526,0.472972972972973
"44","1el19x07ccazkn1alzpv6rlbd0n7zdxq","condswitch",891,"lism","size","switch","k",1,9,2,"masked",0.05,"incongruent",2.47,2.34,2.14,2.43,9.38,"<div style=""font-size:30px;"">apple</div>",0,-0.521925403225806,6.79234442747081,0.472972972972973
"45","1el19x07ccazkn1alzpv6rlbd0n7zdxq","condswitch",772,"lila","animacy","switch","d",1,10,2,"masked",0.05,"congruent",2.47,2.34,2.14,2.43,9.38,"<div style=""font-size:30px;"">octopus</div>",0,-0.521925403225806,6.64898455002478,0.472972972972973
"46","1el19x07ccazkn1alzpv6rlbd0n7zdxq","condswitch",777,"lila","animacy","repetition","d",1,11,2,"masked",0.01,"congruent",2.47,2.34,2.14,2.43,9.38,"<div style=""font-size:30px;"">panther</div>",0,-0.521925403225806,6.65544035036765,0.472972972972973
"47","1el19x07ccazkn1alzpv6rlbd0n7zdxq","condswitch",712,"lila","animacy","repetition","d",1,12,2,"masked",0.01,"congruent",2.47,2.34,2.14,2.43,9.38,"<div style=""font-size:30px;"">reindeer</div>",0,-0.521925403225806,6.56807791141198,0.472972972972973
"48","1el19x07ccazkn1alzpv6rlbd0n7zdxq","condswitch",1277,"nola","size","switch","l",1,13,2,"masked",0.05,"incongruent",2.47,2.34,2.14,2.43,9.38,"<div style=""font-size:30px;"">stove</div>",0,-0.521925403225806,7.15226885603254,0.472972972972973
"49","1el19x07ccazkn1alzpv6rlbd0n7zdxq","condswitch",1594,"lism","size","repetition","k",1,14,2,"masked",0.01,"incongruent",2.47,2.34,2.14,2.43,9.38,"<div style=""font-size:30px;"">tomato</div>",0,-0.521925403225806,7.37400185935016,0.472972972972973
"50","1el19x07ccazkn1alzpv6rlbd0n7zdxq","condswitch",1407,"nola","size","repetition","l",1,15,2,"masked",0.01,"incongruent",2.47,2.34,2.14,2.43,9.38,"<div style=""font-size:30px;"">anchor</div>",0,-0.521925403225806,7.24921505711439,0.472972972972973
"51","1el19x07ccazkn1alzpv6rlbd0n7zdxq","condswitch",1168,"nosm","animacy","switch","s",1,16,2,"masked",0.05,"congruent",2.47,2.34,2.14,2.43,9.38,"<div style=""font-size:30px;"">calculator</div>",0,-0.521925403225806,7.06304816338817,0.472972972972973
"52","1el19x07ccazkn1alzpv6rlbd0n7zdxq","condswitch",1225,"nosm","animacy","repetition","s",1,17,2,"masked",0.01,"congruent",2.47,2.34,2.14,2.43,9.38,"<div style=""font-size:30px;"">beaker</div>",0,-0.521925403225806,7.11069612297883,0.472972972972973
"53","1el19x07ccazkn1alzpv6rlbd0n7zdxq","condswitch",1384,"nola","animacy","repetition","s",1,18,2,"masked",0.01,"incongruent",2.47,2.34,2.14,2.43,9.38,"<div style=""font-size:30px;"">surfboard</div>",0,-0.521925403225806,7.23273313617761,0.472972972972973
"54","1el19x07ccazkn1alzpv6rlbd0n7zdxq","condswitch",1010,"lila","animacy","repetition","d",1,19,2,"masked",0.05,"congruent",2.47,2.34,2.14,2.43,9.38,"<div style=""font-size:30px;"">mule</div>",0,-0.521925403225806,6.9177056098353,0.472972972972973
"55","1el19x07ccazkn1alzpv6rlbd0n7zdxq","condswitch",761,"lila","animacy","repetition","d",1,20,2,"masked",0.01,"congruent",2.47,2.34,2.14,2.43,9.38,"<div style=""font-size:30px;"">donkey</div>",0,-0.521925403225806,6.63463335786169,0.472972972972973
"56","1el19x07ccazkn1alzpv6rlbd0n7zdxq","condswitch",1022,"nola","size","switch","l",1,21,2,"masked",0.05,"incongruent",2.47,2.34,2.14,2.43,9.38,"<div style=""font-size:30px;"">cart</div>",0,-0.521925403225806,6.92951677076365,0.472972972972973
"57","1el19x07ccazkn1alzpv6rlbd0n7zdxq","condswitch",1550,"lism","size","repetition","k",1,22,2,"masked",0.01,"incongruent",2.47,2.34,2.14,2.43,9.38,"<div style=""font-size:30px;"">spinach</div>",0,-0.521925403225806,7.34601020991329,0.472972972972973
"58","1el19x07ccazkn1alzpv6rlbd0n7zdxq","condswitch",1648,"nosm","size","repetition","k",1,23,2,"masked",0.01,"congruent",2.47,2.34,2.14,2.43,9.38,"<div style=""font-size:30px;"">cigar</div>",0,-0.521925403225806,7.40731771046942,0.472972972972973
"59","1el19x07ccazkn1alzpv6rlbd0n7zdxq","condswitch",1106,"nola","size","repetition","l",1,24,2,"masked",0.01,"incongruent",2.47,2.34,2.14,2.43,9.38,"<div style=""font-size:30px;"">yacht</div>",0,-0.521925403225806,7.00850518208228,0.472972972972973
"60","1el19x07ccazkn1alzpv6rlbd0n7zdxq","condswitch",795,"lila","animacy","switch","d",1,25,2,"masked",0.01,"congruent",2.47,2.34,2.14,2.43,9.38,"<div style=""font-size:30px;"">camel</div>",0,-0.521925403225806,6.67834211465433,0.472972972972973
"61","1el19x07ccazkn1alzpv6rlbd0n7zdxq","condswitch",1003,"nosm","animacy","repetition","s",1,26,2,"masked",0.01,"congruent",2.47,2.34,2.14,2.43,9.38,"<div style=""font-size:30px;"">softball</div>",0,-0.521925403225806,6.91075078796194,0.472972972972973
"62","1el19x07ccazkn1alzpv6rlbd0n7zdxq","condswitch",990,"lism","size","switch","k",1,27,2,"masked",0.05,"incongruent",2.47,2.34,2.14,2.43,9.38,"<div style=""font-size:30px;"">leaf</div>",0,-0.521925403225806,6.89770494312864,0.472972972972973
"63","1el19x07ccazkn1alzpv6rlbd0n7zdxq","condswitch",877,"lism","animacy","switch","d",1,28,2,"masked",0.05,"incongruent",2.47,2.34,2.14,2.43,9.38,"<div style=""font-size:30px;"">crow</div>",0,-0.521925403225806,6.77650699237218,0.472972972972973
"64","1el19x07ccazkn1alzpv6rlbd0n7zdxq","condswitch",1438,"lism","size","switch","k",1,29,2,"masked",0.05,"incongruent",2.47,2.34,2.14,2.43,9.38,"<div style=""font-size:30px;"">avocado</div>",0,-0.521925403225806,7.27100853828099,0.472972972972973
"65","1el19x07ccazkn1alzpv6rlbd0n7zdxq","condswitch",1309,"nola","size","repetition","l",1,30,2,"masked",0.01,"incongruent",2.47,2.34,2.14,2.43,9.38,"<div style=""font-size:30px;"">comet</div>",0,-0.521925403225806,7.1770187659099,0.472972972972973
"66","1el19x07ccazkn1alzpv6rlbd0n7zdxq","condswitch",1633,"nosm","animacy","switch","s",1,31,2,"masked",0.05,"congruent",2.47,2.34,2.14,2.43,9.38,"<div style=""font-size:30px;"">coupon</div>",0,-0.521925403225806,7.39817409297047,0.472972972972973
"67","1el19x07ccazkn1alzpv6rlbd0n7zdxq","condswitch",1145,"lila","animacy","repetition","d",1,32,2,"masked",0.01,"congruent",2.47,2.34,2.14,2.43,9.38,"<div style=""font-size:30px;"">wolf</div>",0,-0.521925403225806,7.04315991598834,0.472972972972973
"68","1el19x07ccazkn1alzpv6rlbd0n7zdxq","condswitch",1307,"nola","size","switch","l",1,33,2,"masked",0.05,"incongruent",2.47,2.34,2.14,2.43,9.38,"<div style=""font-size:30px;"">dorm</div>",0,-0.521925403225806,7.17548971362422,0.472972972972973
"69","1el19x07ccazkn1alzpv6rlbd0n7zdxq","condswitch",1324,"nosm","animacy","switch","s",1,34,2,"masked",0.05,"congruent",2.47,2.34,2.14,2.43,9.38,"<div style=""font-size:30px;"">scissors</div>",0,-0.521925403225806,7.18841273649695,0.472972972972973
"70","1el19x07ccazkn1alzpv6rlbd0n7zdxq","condswitch",706,"lila","animacy","repetition","d",1,35,2,"masked",0.01,"congruent",2.47,2.34,2.14,2.43,9.38,"<div style=""font-size:30px;"">giraffe</div>",0,-0.521925403225806,6.55961523749324,0.472972972972973
"71","1el19x07ccazkn1alzpv6rlbd0n7zdxq","condswitch",1795,"nola","size","switch","l",1,36,2,"masked",0.05,"incongruent",2.47,2.34,2.14,2.43,9.38,"<div style=""font-size:30px;"">keg</div>",0,-0.521925403225806,7.49276030092238,0.472972972972973
"72","1el19x07ccazkn1alzpv6rlbd0n7zdxq","condswitch",1419,"nola","size","repetition","l",1,37,2,"masked",0.01,"incongruent",2.47,2.34,2.14,2.43,9.38,"<div style=""font-size:30px;"">mansion</div>",0,-0.521925403225806,7.25770767716004,0.472972972972973
"73","1el19x07ccazkn1alzpv6rlbd0n7zdxq","condswitch",1125,"nosm","size","repetition","k",1,38,2,"masked",0.01,"congruent",2.47,2.34,2.14,2.43,9.38,"<div style=""font-size:30px;"">ruby</div>",0,-0.521925403225806,7.02553831463852,0.472972972972973
"74","1el19x07ccazkn1alzpv6rlbd0n7zdxq","condswitch",1097,"lism","size","repetition","k",1,39,2,"masked",0.01,"incongruent",2.47,2.34,2.14,2.43,9.38,"<div style=""font-size:30px;"">pear</div>",0,-0.521925403225806,7.00033446027523,0.472972972972973
"75","1el19x07ccazkn1alzpv6rlbd0n7zdxq","condswitch",1198,"lism","size","switch","k",1,1,3,"masked",0.05,"incongruent",2.47,2.34,2.14,2.43,9.38,"<div style=""font-size:30px;"">radish</div>",0,0.478074596774194,7.08840877867539,0.472972972972973
"76","1el19x07ccazkn1alzpv6rlbd0n7zdxq","condswitch",1004,"nola","size","repetition","l",1,2,3,"masked",0.01,"incongruent",2.47,2.34,2.14,2.43,9.38,"<div style=""font-size:30px;"">tent</div>",0,0.478074596774194,6.91174730025167,0.472972972972973
"77","1el19x07ccazkn1alzpv6rlbd0n7zdxq","condswitch",843,"nola","size","repetition","l",1,3,3,"masked",0.01,"incongruent",2.47,2.34,2.14,2.43,9.38,"<div style=""font-size:30px;"">billboard</div>",0,0.478074596774194,6.73696695800186,0.472972972972973
"78","1el19x07ccazkn1alzpv6rlbd0n7zdxq","condswitch",1330,"lism","animacy","switch","d",1,4,3,"masked",0.05,"incongruent",2.47,2.34,2.14,2.43,9.38,"<div style=""font-size:30px;"">worm</div>",0,0.478074596774194,7.1929342212158,0.472972972972973
"79","1el19x07ccazkn1alzpv6rlbd0n7zdxq","condswitch",793,"lila","animacy","repetition","d",1,5,3,"masked",0.01,"congruent",2.47,2.34,2.14,2.43,9.38,"<div style=""font-size:30px;"">eagle</div>",0,0.478074596774194,6.67582322163485,0.472972972972973
"80","1el19x07ccazkn1alzpv6rlbd0n7zdxq","condswitch",947,"nosm","size","switch","k",1,6,3,"masked",0.05,"congruent",2.47,2.34,2.14,2.43,9.38,"<div style=""font-size:30px;"">emerald</div>",0,0.478074596774194,6.85329909318608,0.472972972972973
"81","1el19x07ccazkn1alzpv6rlbd0n7zdxq","condswitch",1221,"nola","size","repetition","l",1,7,3,"masked",0.01,"incongruent",2.47,2.34,2.14,2.43,9.38,"<div style=""font-size:30px;"">ferry</div>",0,0.478074596774194,7.1074254741107,0.472972972972973
"82","1el19x07ccazkn1alzpv6rlbd0n7zdxq","condswitch",1045,"nola","size","repetition","l",1,8,3,"masked",0.01,"incongruent",2.47,2.34,2.14,2.43,9.38,"<div style=""font-size:30px;"">igloo</div>",0,0.478074596774194,6.95177216439891,0.472972972972973
"83","1el19x07ccazkn1alzpv6rlbd0n7zdxq","condswitch",1316,"lila","animacy","switch","d",1,9,3,"masked",0.05,"congruent",2.47,2.34,2.14,2.43,9.38,"<div style=""font-size:30px;"">chimpanzee</div>",0,0.478074596774194,7.18235211188526,0.472972972972973
"84","1el19x07ccazkn1alzpv6rlbd0n7zdxq","condswitch",985,"nola","size","switch","l",1,10,3,"masked",0.05,"incongruent",2.47,2.34,2.14,2.43,9.38,"<div style=""font-size:30px;"">cab</div>",0,0.478074596774194,6.89264164117209,0.472972972972973
"85","1el19x07ccazkn1alzpv6rlbd0n7zdxq","condswitch",1140,"nosm","animacy","switch","s",1,11,3,"masked",0.05,"congruent",2.47,2.34,2.14,2.43,9.38,"<div style=""font-size:30px;"">medal</div>",0,0.478074596774194,7.03878354138854,0.472972972972973
"86","1el19x07ccazkn1alzpv6rlbd0n7zdxq","condswitch",1172,"lila","animacy","repetition","d",1,12,3,"masked",0.01,"congruent",2.47,2.34,2.14,2.43,9.38,"<div style=""font-size:30px;"">aardvark</div>",0,0.478074596774194,7.06646697013696,0.472972972972973
"87","1el19x07ccazkn1alzpv6rlbd0n7zdxq","condswitch",991,"lism","size","switch","k",1,13,3,"masked",0.01,"incongruent",2.47,2.34,2.14,2.43,9.38,"<div style=""font-size:30px;"">peach</div>",0,0.478074596774194,6.89871453432999,0.472972972972973
"88","1el19x07ccazkn1alzpv6rlbd0n7zdxq","condswitch",1044,"lila","animacy","switch","d",1,14,3,"masked",0.01,"congruent",2.47,2.34,2.14,2.43,9.38,"<div style=""font-size:30px;"">elk</div>",0,0.478074596774194,6.95081476844258,0.472972972972973
"89","1el19x07ccazkn1alzpv6rlbd0n7zdxq","condswitch",917,"lila","animacy","repetition","d",1,15,3,"masked",0.01,"congruent",2.47,2.34,2.14,2.43,9.38,"<div style=""font-size:30px;"">cow</div>",0,0.478074596774194,6.82110747225646,0.472972972972973
"90","1el19x07ccazkn1alzpv6rlbd0n7zdxq","condswitch",669,"lila","animacy","repetition","d",1,16,3,"masked",0.01,"congruent",2.47,2.34,2.14,2.43,9.38,"<div style=""font-size:30px;"">lion</div>",0,0.478074596774194,6.50578406012823,0.472972972972973
"91","1el19x07ccazkn1alzpv6rlbd0n7zdxq","condswitch",1130,"nosm","animacy","repetition","s",1,17,3,"masked",0.01,"congruent",2.47,2.34,2.14,2.43,9.38,"<div style=""font-size:30px;"">glove</div>",0,0.478074596774194,7.02997291170639,0.472972972972973
"92","1el19x07ccazkn1alzpv6rlbd0n7zdxq","condswitch",1258,"nosm","animacy","repetition","s",1,18,3,"masked",0.01,"congruent",2.47,2.34,2.14,2.43,9.38,"<div style=""font-size:30px;"">lock</div>",0,0.478074596774194,7.13727843726039,0.472972972972973
"93","1el19x07ccazkn1alzpv6rlbd0n7zdxq","condswitch",1018,"nola","size","switch","l",1,19,3,"masked",0.05,"incongruent",2.47,2.34,2.14,2.43,9.38,"<div style=""font-size:30px;"">windmill</div>",0,0.478074596774194,6.92559519711047,0.472972972972973
"94","1el19x07ccazkn1alzpv6rlbd0n7zdxq","condswitch",826,"lila","animacy","switch","d",1,20,3,"masked",0.05,"congruent",2.47,2.34,2.14,2.43,9.38,"<div style=""font-size:30px;"">vulture</div>",0,0.478074596774194,6.71659477352098,0.472972972972973
"95","1el19x07ccazkn1alzpv6rlbd0n7zdxq","condswitch",1247,"nosm","animacy","repetition","s",1,23,3,"masked",0.01,"congruent",2.47,2.34,2.14,2.43,9.38,"<div style=""font-size:30px;"">flask</div>",0,0.478074596774194,7.12849594568004,0.472972972972973
"96","1el19x07ccazkn1alzpv6rlbd0n7zdxq","condswitch",1175,"lism","size","switch","k",1,24,3,"masked",0.01,"incongruent",2.47,2.34,2.14,2.43,9.38,"<div style=""font-size:30px;"">raspberry</div>",0,0.478074596774194,7.06902342657826,0.472972972972973
"97","1el19x07ccazkn1alzpv6rlbd0n7zdxq","condswitch",1239,"nosm","animacy","switch","s",1,25,3,"masked",0.05,"congruent",2.47,2.34,2.14,2.43,9.38,"<div style=""font-size:30px;"">badge</div>",0,0.478074596774194,7.12205988162914,0.472972972972973
"98","1el19x07ccazkn1alzpv6rlbd0n7zdxq","condswitch",1166,"nola","size","switch","l",1,26,3,"masked",0.01,"incongruent",2.47,2.34,2.14,2.43,9.38,"<div style=""font-size:30px;"">taxi</div>",0,0.478074596774194,7.06133436691044,0.472972972972973
"99","1el19x07ccazkn1alzpv6rlbd0n7zdxq","condswitch",1530,"nosm","animacy","switch","s",1,27,3,"masked",0.05,"congruent",2.47,2.34,2.14,2.43,9.38,"<div style=""font-size:30px;"">chalk</div>",0,0.478074596774194,7.33302301438648,0.472972972972973
"100","1el19x07ccazkn1alzpv6rlbd0n7zdxq","condswitch",1387,"lism","size","switch","k",1,28,3,"masked",0.05,"incongruent",2.47,2.34,2.14,2.43,9.38,"<div style=""font-size:30px;"">celery</div>",0,0.478074596774194,7.23489842031483,0.472972972972973
"101","1el19x07ccazkn1alzpv6rlbd0n7zdxq","condswitch",968,"lism","size","repetition","k",1,29,3,"masked",0.01,"incongruent",2.47,2.34,2.14,2.43,9.38,"<div style=""font-size:30px;"">rose</div>",0,0.478074596774194,6.87523208727658,0.472972972972973
"102","1el19x07ccazkn1alzpv6rlbd0n7zdxq","condswitch",825,"lila","animacy","switch","d",1,30,3,"masked",0.05,"congruent",2.47,2.34,2.14,2.43,9.38,"<div style=""font-size:30px;"">coyote</div>",0,0.478074596774194,6.71538338633468,0.472972972972973
"103","1el19x07ccazkn1alzpv6rlbd0n7zdxq","condswitch",587,"lism","animacy","repetition","d",1,31,3,"masked",0.01,"incongruent",2.47,2.34,2.14,2.43,9.38,"<div style=""font-size:30px;"">shrimp</div>",0,0.478074596774194,6.3750248198281,0.472972972972973
"104","1el19x07ccazkn1alzpv6rlbd0n7zdxq","condswitch",1035,"nosm","animacy","repetition","s",1,32,3,"masked",0.01,"congruent",2.47,2.34,2.14,2.43,9.38,"<div style=""font-size:30px;"">compass</div>",0,0.478074596774194,6.94215670569947,0.472972972972973
"105","1el19x07ccazkn1alzpv6rlbd0n7zdxq","condswitch",1038,"lism","animacy","repetition","d",1,33,3,"masked",0.01,"incongruent",2.47,2.34,2.14,2.43,9.38,"<div style=""font-size:30px;"">butterfly</div>",0,0.478074596774194,6.94505106372583,0.472972972972973
"106","1el19x07ccazkn1alzpv6rlbd0n7zdxq","condswitch",1442,"lism","size","switch","k",1,34,3,"masked",0.05,"incongruent",2.47,2.34,2.14,2.43,9.38,"<div style=""font-size:30px;"">potato</div>",0,0.478074596774194,7.27378631784489,0.472972972972973
"107","1el19x07ccazkn1alzpv6rlbd0n7zdxq","condswitch",1516,"lila","animacy","switch","d",1,35,3,"masked",0.05,"congruent",2.47,2.34,2.14,2.43,9.38,"<div style=""font-size:30px;"">primate</div>",0,0.478074596774194,7.32383056620232,0.472972972972973
"108","1el19x07ccazkn1alzpv6rlbd0n7zdxq","condswitch",1008,"nola","size","switch","l",1,36,3,"masked",0.05,"incongruent",2.47,2.34,2.14,2.43,9.38,"<div style=""font-size:30px;"">motel</div>",0,0.478074596774194,6.91572344863131,0.472972972972973
"109","1el19x07ccazkn1alzpv6rlbd0n7zdxq","condswitch",1040,"nosm","size","repetition","k",1,37,3,"masked",0.01,"congruent",2.47,2.34,2.14,2.43,9.38,"<div style=""font-size:30px;"">gem</div>",0,0.478074596774194,6.94697599213542,0.472972972972973
"110","1el19x07ccazkn1alzpv6rlbd0n7zdxq","condswitch",1500,"nola","size","repetition","l",1,38,3,"masked",0.01,"incongruent",2.47,2.34,2.14,2.43,9.38,"<div style=""font-size:30px;"">luggage</div>",0,0.478074596774194,7.3132203870903,0.472972972972973
"111","1el19x07ccazkn1alzpv6rlbd0n7zdxq","condswitch",964,"lila","animacy","switch","d",1,39,3,"masked",0.05,"congruent",2.47,2.34,2.14,2.43,9.38,"<div style=""font-size:30px;"">bobcat</div>",0,0.478074596774194,6.87109129461055,0.472972972972973
"112","1el19x07ccazkn1alzpv6rlbd0n7zdxq","condswitch",751,"lism","animacy","repetition","d",1,1,4,"masked",0.01,"incongruent",2.47,2.34,2.14,2.43,9.38,"<div style=""font-size:30px;"">goldfish</div>",0,1.47807459677419,6.62140565176413,0.472972972972973
"113","1el19x07ccazkn1alzpv6rlbd0n7zdxq","condswitch",1193,"nola","size","switch","l",1,2,4,"masked",0.05,"incongruent",2.47,2.34,2.14,2.43,9.38,"<div style=""font-size:30px;"">locomotive</div>",0,1.47807459677419,7.08422642209792,0.472972972972973
"114","1el19x07ccazkn1alzpv6rlbd0n7zdxq","condswitch",1231,"nola","size","repetition","l",1,3,4,"masked",0.01,"incongruent",2.47,2.34,2.14,2.43,9.38,"<div style=""font-size:30px;"">jeep</div>",0,1.47807459677419,7.11558212618445,0.472972972972973
"115","1el19x07ccazkn1alzpv6rlbd0n7zdxq","condswitch",729,"lila","animacy","switch","d",1,4,4,"masked",0.05,"congruent",2.47,2.34,2.14,2.43,9.38,"<div style=""font-size:30px;"">walrus</div>",0,1.47807459677419,6.59167373200866,0.472972972972973
"116","1el19x07ccazkn1alzpv6rlbd0n7zdxq","condswitch",1537,"nosm","animacy","repetition","s",1,5,4,"masked",0.01,"congruent",2.47,2.34,2.14,2.43,9.38,"<div style=""font-size:30px;"">tack</div>",0,1.47807459677419,7.3375877435386,0.472972972972973
"117","1el19x07ccazkn1alzpv6rlbd0n7zdxq","condswitch",1227,"lila","animacy","repetition","d",1,8,4,"masked",0.01,"congruent",2.47,2.34,2.14,2.43,9.38,"<div style=""font-size:30px;"">ram</div>",0,1.47807459677419,7.11232744471091,0.472972972972973
"118","1el19x07ccazkn1alzpv6rlbd0n7zdxq","condswitch",1002,"nola","size","switch","l",1,9,4,"masked",0.05,"incongruent",2.47,2.34,2.14,2.43,9.38,"<div style=""font-size:30px;"">oven</div>",0,1.47807459677419,6.90975328164481,0.472972972972973
"119","1el19x07ccazkn1alzpv6rlbd0n7zdxq","condswitch",1575,"nosm","size","repetition","k",1,10,4,"masked",0.05,"congruent",2.47,2.34,2.14,2.43,9.38,"<div style=""font-size:30px;"">jewel</div>",0,1.47807459677419,7.36201055125973,0.472972972972973
"120","1el19x07ccazkn1alzpv6rlbd0n7zdxq","condswitch",1550,"nosm","animacy","switch","s",1,11,4,"masked",0.05,"congruent",2.47,2.34,2.14,2.43,9.38,"<div style=""font-size:30px;"">teapot</div>",0,1.47807459677419,7.34601020991329,0.472972972972973
"121","1el19x07ccazkn1alzpv6rlbd0n7zdxq","condswitch",644,"lila","animacy","repetition","d",1,12,4,"masked",0.01,"congruent",2.47,2.34,2.14,2.43,9.38,"<div style=""font-size:30px;"">hog</div>",0,1.47807459677419,6.46769872610435,0.472972972972973
"122","1el19x07ccazkn1alzpv6rlbd0n7zdxq","condswitch",1149,"nola","size","switch","l",1,13,4,"masked",0.05,"incongruent",2.47,2.34,2.14,2.43,9.38,"<div style=""font-size:30px;"">limousine</div>",0,1.47807459677419,7.04664727784876,0.472972972972973
"123","1el19x07ccazkn1alzpv6rlbd0n7zdxq","condswitch",1787,"nosm","size","repetition","k",1,14,4,"masked",0.01,"congruent",2.47,2.34,2.14,2.43,9.38,"<div style=""font-size:30px;"">whistle</div>",0,1.47807459677419,7.48829351515943,0.472972972972973
"124","1el19x07ccazkn1alzpv6rlbd0n7zdxq","condswitch",1129,"nosm","size","repetition","k",1,15,4,"masked",0.01,"congruent",2.47,2.34,2.14,2.43,9.38,"<div style=""font-size:30px;"">diamond</div>",0,1.47807459677419,7.02908756414966,0.472972972972973
"125","1el19x07ccazkn1alzpv6rlbd0n7zdxq","condswitch",1803,"lism","size","repetition","k",1,16,4,"masked",0.01,"incongruent",2.47,2.34,2.14,2.43,9.38,"<div style=""font-size:30px;"">peas</div>",0,1.47807459677419,7.49720722320332,0.472972972972973
"126","1el19x07ccazkn1alzpv6rlbd0n7zdxq","condswitch",841,"nola","size","repetition","l",1,17,4,"masked",0.01,"incongruent",2.47,2.34,2.14,2.43,9.38,"<div style=""font-size:30px;"">castle</div>",0,1.47807459677419,6.73459165997295,0.472972972972973
"127","1el19x07ccazkn1alzpv6rlbd0n7zdxq","condswitch",1150,"lism","size","repetition","k",1,18,4,"masked",0.01,"incongruent",2.47,2.34,2.14,2.43,9.38,"<div style=""font-size:30px;"">cabbage</div>",0,1.47807459677419,7.0475172213573,0.472972972972973
"128","1el19x07ccazkn1alzpv6rlbd0n7zdxq","condswitch",1176,"lism","size","repetition","k",1,19,4,"masked",0.01,"incongruent",2.47,2.34,2.14,2.43,9.38,"<div style=""font-size:30px;"">asparagus</div>",0,1.47807459677419,7.06987412845857,0.472972972972973
"129","1el19x07ccazkn1alzpv6rlbd0n7zdxq","condswitch",1697,"lila","animacy","switch","d",1,20,4,"masked",0.05,"congruent",2.47,2.34,2.14,2.43,9.38,"<div style=""font-size:30px;"">anaconda</div>",0,1.47807459677419,7.43661726523423,0.472972972972973
"130","1el19x07ccazkn1alzpv6rlbd0n7zdxq","condswitch",1488,"nola","size","switch","l",1,21,4,"masked",0.05,"incongruent",2.47,2.34,2.14,2.43,9.38,"<div style=""font-size:30px;"">canal</div>",0,1.47807459677419,7.30518821539304,0.472972972972973
"131","1el19x07ccazkn1alzpv6rlbd0n7zdxq","condswitch",1044,"lila","animacy","switch","d",1,22,4,"masked",0.05,"congruent",2.47,2.34,2.14,2.43,9.38,"<div style=""font-size:30px;"">zebra</div>",0,1.47807459677419,6.95081476844258,0.472972972972973
"132","1el19x07ccazkn1alzpv6rlbd0n7zdxq","condswitch",938,"lila","animacy","repetition","d",1,23,4,"masked",0.01,"congruent",2.47,2.34,2.14,2.43,9.38,"<div style=""font-size:30px;"">gorilla</div>",0,1.47807459677419,6.84374994900622,0.472972972972973
"133","1el19x07ccazkn1alzpv6rlbd0n7zdxq","condswitch",1347,"nosm","animacy","repetition","s",1,24,4,"masked",0.01,"congruent",2.47,2.34,2.14,2.43,9.38,"<div style=""font-size:30px;"">peg</div>",0,1.47807459677419,7.20563517641036,0.472972972972973
"134","1el19x07ccazkn1alzpv6rlbd0n7zdxq","condswitch",951,"nola","size","switch","l",1,25,4,"masked",0.05,"incongruent",2.47,2.34,2.14,2.43,9.38,"<div style=""font-size:30px;"">ambulance</div>",0,1.47807459677419,6.85751406254539,0.472972972972973
"135","1el19x07ccazkn1alzpv6rlbd0n7zdxq","condswitch",825,"lila","animacy","switch","d",1,26,4,"masked",0.05,"congruent",2.47,2.34,2.14,2.43,9.38,"<div style=""font-size:30px;"">bull</div>",0,1.47807459677419,6.71538338633468,0.472972972972973
"136","1el19x07ccazkn1alzpv6rlbd0n7zdxq","condswitch",882,"lism","animacy","repetition","d",1,27,4,"masked",0.01,"incongruent",2.47,2.34,2.14,2.43,9.38,"<div style=""font-size:30px;"">rodent</div>",0,1.47807459677419,6.78219205600679,0.472972972972973
"137","1el19x07ccazkn1alzpv6rlbd0n7zdxq","condswitch",1296,"nosm","size","switch","k",1,28,4,"masked",0.05,"congruent",2.47,2.34,2.14,2.43,9.38,"<div style=""font-size:30px;"">razor</div>",0,1.47807459677419,7.16703787691222,0.472972972972973
"138","1el19x07ccazkn1alzpv6rlbd0n7zdxq","condswitch",1304,"lism","size","repetition","k",1,29,4,"masked",0.01,"incongruent",2.47,2.34,2.14,2.43,9.38,"<div style=""font-size:30px;"">parsley</div>",0,1.47807459677419,7.1731917424866,0.472972972972973
"139","1el19x07ccazkn1alzpv6rlbd0n7zdxq","condswitch",861,"lila","animacy","switch","d",1,30,4,"masked",0.05,"congruent",2.47,2.34,2.14,2.43,9.38,"<div style=""font-size:30px;"">dolphin</div>",0,1.47807459677419,6.75809450442773,0.472972972972973
"140","1el19x07ccazkn1alzpv6rlbd0n7zdxq","condswitch",923,"lila","animacy","repetition","d",1,31,4,"masked",0.01,"congruent",2.47,2.34,2.14,2.43,9.38,"<div style=""font-size:30px;"">wildebeest</div>",0,1.47807459677419,6.82762923450285,0.472972972972973
"141","1el19x07ccazkn1alzpv6rlbd0n7zdxq","condswitch",821,"lism","size","switch","k",1,32,4,"masked",0.05,"incongruent",2.47,2.34,2.14,2.43,9.38,"<div style=""font-size:30px;"">plum</div>",0,1.47807459677419,6.71052310945243,0.472972972972973
"142","1el19x07ccazkn1alzpv6rlbd0n7zdxq","condswitch",974,"nola","size","repetition","l",1,33,4,"masked",0.01,"incongruent",2.47,2.34,2.14,2.43,9.38,"<div style=""font-size:30px;"">cannon</div>",0,1.47807459677419,6.88141130364254,0.472972972972973
"143","1el19x07ccazkn1alzpv6rlbd0n7zdxq","condswitch",961,"nola","size","repetition","l",1,34,4,"masked",0.01,"incongruent",2.47,2.34,2.14,2.43,9.38,"<div style=""font-size:30px;"">patio</div>",0,1.47807459677419,6.86797440897029,0.472972972972973
"144","1el19x07ccazkn1alzpv6rlbd0n7zdxq","condswitch",984,"nosm","size","repetition","k",1,35,4,"masked",0.01,"congruent",2.47,2.34,2.14,2.43,9.38,"<div style=""font-size:30px;"">wallet</div>",0,1.47807459677419,6.89162589705225,0.472972972972973
"145","1el19x07ccazkn1alzpv6rlbd0n7zdxq","condswitch",1480,"lism","animacy","switch","d",1,36,4,"masked",0.05,"incongruent",2.47,2.34,2.14,2.43,9.38,"<div style=""font-size:30px;"">algae</div>",0,1.47807459677419,7.29979736675816,0.472972972972973
"146","1el19x07ccazkn1alzpv6rlbd0n7zdxq","condswitch",912,"lism","size","switch","k",1,37,4,"masked",0.05,"incongruent",2.47,2.34,2.14,2.43,9.38,"<div style=""font-size:30px;"">carrot</div>",0,1.47807459677419,6.81563999007433,0.472972972972973
"147","1el19x07ccazkn1alzpv6rlbd0n7zdxq","condswitch",1030,"nola","size","repetition","l",1,38,4,"masked",0.01,"incongruent",2.47,2.34,2.14,2.43,9.38,"<div style=""font-size:30px;"">treadmill</div>",0,1.47807459677419,6.93731408122368,0.472972972972973
"148","1el19x07ccazkn1alzpv6rlbd0n7zdxq","condswitch",1124,"lism","animacy","switch","d",1,39,4,"masked",0.05,"incongruent",2.47,2.34,2.14,2.43,9.38,"<div style=""font-size:30px;"">bacteria</div>",0,1.47807459677419,7.02464903045364,0.472972972972973
"149","1h2jd9ubc2wd973d5d7zh1jbmluo96k6","condswitch",662,"nosm","animacy","repetition","l",1,1,1,"masked",0.01,"incongruent",0.86,1.05,0.94,1.07,3.92,"<div style=""font-size:30px;"">tack</div>",0,-1.52192540322581,6.49526555593701,0
"150","1h2jd9ubc2wd973d5d7zh1jbmluo96k6","condswitch",669,"lism","animacy","repetition","k",1,2,1,"masked",0.01,"congruent",0.86,1.05,0.94,1.07,3.92,"<div style=""font-size:30px;"">peach</div>",0,-1.52192540322581,6.50578406012823,0
"151","1h2jd9ubc2wd973d5d7zh1jbmluo96k6","condswitch",691,"nosm","animacy","repetition","l",1,3,1,"masked",0.01,"incongruent",0.86,1.05,0.94,1.07,3.92,"<div style=""font-size:30px;"">receipt</div>",0,-1.52192540322581,6.53813982376767,0
"152","1h2jd9ubc2wd973d5d7zh1jbmluo96k6","condswitch",776,"nosm","animacy","repetition","l",1,4,1,"masked",0.01,"incongruent",0.86,1.05,0.94,1.07,3.92,"<div style=""font-size:30px;"">thimble</div>",0,-1.52192540322581,6.65415252018322,0
"153","1h2jd9ubc2wd973d5d7zh1jbmluo96k6","condswitch",646,"nola","animacy","repetition","l",1,6,1,"masked",0.01,"congruent",0.86,1.05,0.94,1.07,3.92,"<div style=""font-size:30px;"">balcony</div>",0,-1.52192540322581,6.4707995037826,0
"154","1h2jd9ubc2wd973d5d7zh1jbmluo96k6","condswitch",525,"nosm","animacy","repetition","l",1,7,1,"masked",0.01,"incongruent",0.86,1.05,0.94,1.07,3.92,"<div style=""font-size:30px;"">dice</div>",0,-1.52192540322581,6.26339826259162,0
"155","1h2jd9ubc2wd973d5d7zh1jbmluo96k6","condswitch",533,"nola","animacy","repetition","l",1,8,1,"masked",0.01,"congruent",0.86,1.05,0.94,1.07,3.92,"<div style=""font-size:30px;"">garage</div>",0,-1.52192540322581,6.27852142416584,0
"156","1h2jd9ubc2wd973d5d7zh1jbmluo96k6","condswitch",611,"nosm","animacy","repetition","l",1,9,1,"masked",0.01,"incongruent",0.86,1.05,0.94,1.07,3.92,"<div style=""font-size:30px;"">bracelet</div>",0,-1.52192540322581,6.4150969591716,0
"157","1h2jd9ubc2wd973d5d7zh1jbmluo96k6","condswitch",685,"lism","animacy","repetition","k",1,12,1,"masked",0.01,"congruent",0.86,1.05,0.94,1.07,3.92,"<div style=""font-size:30px;"">raspberry</div>",0,-1.52192540322581,6.52941883826223,0
"158","1h2jd9ubc2wd973d5d7zh1jbmluo96k6","condswitch",638,"nosm","animacy","repetition","l",1,13,1,"masked",0.01,"incongruent",0.86,1.05,0.94,1.07,3.92,"<div style=""font-size:30px;"">tweezers</div>",0,-1.52192540322581,6.45833828334479,0
"159","1h2jd9ubc2wd973d5d7zh1jbmluo96k6","condswitch",671,"nosm","animacy","repetition","l",1,16,1,"masked",0.01,"incongruent",0.86,1.05,0.94,1.07,3.92,"<div style=""font-size:30px;"">napkin</div>",0,-1.52192540322581,6.50876913697168,0
"160","1h2jd9ubc2wd973d5d7zh1jbmluo96k6","condswitch",574,"nosm","animacy","repetition","l",1,17,1,"masked",0.01,"incongruent",0.86,1.05,0.94,1.07,3.92,"<div style=""font-size:30px;"">zipper</div>",0,-1.52192540322581,6.35262939631957,0
"161","1h2jd9ubc2wd973d5d7zh1jbmluo96k6","condswitch",550,"lila","animacy","repetition","k",1,18,1,"masked",0.01,"incongruent",0.86,1.05,0.94,1.07,3.92,"<div style=""font-size:30px;"">elephant</div>",0,-1.52192540322581,6.30991827822652,0
"162","1h2jd9ubc2wd973d5d7zh1jbmluo96k6","condswitch",546,"lila","animacy","repetition","k",1,19,1,"masked",0.01,"incongruent",0.86,1.05,0.94,1.07,3.92,"<div style=""font-size:30px;"">moose</div>",0,-1.52192540322581,6.30261897574491,0
"163","1h2jd9ubc2wd973d5d7zh1jbmluo96k6","condswitch",646,"lism","animacy","repetition","k",1,20,1,"masked",0.01,"congruent",0.86,1.05,0.94,1.07,3.92,"<div style=""font-size:30px;"">cabbage</div>",0,-1.52192540322581,6.4707995037826,0
"164","1h2jd9ubc2wd973d5d7zh1jbmluo96k6","condswitch",468,"nosm","animacy","repetition","l",1,21,1,"masked",0.01,"incongruent",0.86,1.05,0.94,1.07,3.92,"<div style=""font-size:30px;"">chalk</div>",0,-1.52192540322581,6.14846829591765,0
"165","1h2jd9ubc2wd973d5d7zh1jbmluo96k6","condswitch",670,"lila","animacy","repetition","k",1,22,1,"masked",0.01,"incongruent",0.86,1.05,0.94,1.07,3.92,"<div style=""font-size:30px;"">whale</div>",0,-1.52192540322581,6.50727771238501,0
"166","1h2jd9ubc2wd973d5d7zh1jbmluo96k6","condswitch",631,"nola","animacy","repetition","l",1,23,1,"masked",0.05,"congruent",0.86,1.05,0.94,1.07,3.92,"<div style=""font-size:30px;"">yacht</div>",0,-1.52192540322581,6.44730586254121,0
"167","1h2jd9ubc2wd973d5d7zh1jbmluo96k6","condswitch",538,"lila","animacy","repetition","k",1,24,1,"masked",0.01,"incongruent",0.86,1.05,0.94,1.07,3.92,"<div style=""font-size:30px;"">panda</div>",0,-1.52192540322581,6.28785856016178,0
"168","1h2jd9ubc2wd973d5d7zh1jbmluo96k6","condswitch",561,"lism","animacy","repetition","k",1,25,1,"masked",0.01,"congruent",0.86,1.05,0.94,1.07,3.92,"<div style=""font-size:30px;"">caterpillar</div>",0,-1.52192540322581,6.3297209055227,0
"169","1h2jd9ubc2wd973d5d7zh1jbmluo96k6","condswitch",598,"nola","animacy","repetition","l",1,26,1,"masked",0.01,"congruent",0.86,1.05,0.94,1.07,3.92,"<div style=""font-size:30px;"">escalator</div>",0,-1.52192540322581,6.39359075395063,0
"170","1h2jd9ubc2wd973d5d7zh1jbmluo96k6","condswitch",688,"lism","animacy","repetition","k",1,29,1,"masked",0.01,"congruent",0.86,1.05,0.94,1.07,3.92,"<div style=""font-size:30px;"">apple</div>",0,-1.52192540322581,6.53378883793334,0
"171","1h2jd9ubc2wd973d5d7zh1jbmluo96k6","condswitch",711,"nola","animacy","repetition","l",1,30,1,"masked",0.01,"congruent",0.86,1.05,0.94,1.07,3.92,"<div style=""font-size:30px;"">toilet</div>",0,-1.52192540322581,6.56667242980324,0
"172","1h2jd9ubc2wd973d5d7zh1jbmluo96k6","condswitch",678,"lila","animacy","repetition","k",1,31,1,"masked",0.01,"incongruent",0.86,1.05,0.94,1.07,3.92,"<div style=""font-size:30px;"">ox</div>",0,-1.52192540322581,6.5191472879404,0
"173","1h2jd9ubc2wd973d5d7zh1jbmluo96k6","condswitch",687,"nola","animacy","repetition","l",1,33,1,"masked",0.01,"congruent",0.86,1.05,0.94,1.07,3.92,"<div style=""font-size:30px;"">motel</div>",0,-1.52192540322581,6.53233429222235,0
"174","1h2jd9ubc2wd973d5d7zh1jbmluo96k6","condswitch",758,"nola","animacy","repetition","l",1,34,1,"masked",0.01,"congruent",0.86,1.05,0.94,1.07,3.92,"<div style=""font-size:30px;"">tuba</div>",0,-1.52192540322581,6.63068338564237,0
"175","1h2jd9ubc2wd973d5d7zh1jbmluo96k6","condswitch",872,"lism","animacy","repetition","k",1,35,1,"masked",0.01,"congruent",0.86,1.05,0.94,1.07,3.92,"<div style=""font-size:30px;"">daisy</div>",0,-1.52192540322581,6.77078942390898,0
"176","1h2jd9ubc2wd973d5d7zh1jbmluo96k6","condswitch",735,"lism","animacy","repetition","k",1,38,1,"masked",0.01,"congruent",0.86,1.05,0.94,1.07,3.92,"<div style=""font-size:30px;"">plum</div>",0,-1.52192540322581,6.59987049921284,0
"177","1h2jd9ubc2wd973d5d7zh1jbmluo96k6","condswitch",544,"lila","animacy","repetition","k",1,39,1,"masked",0.01,"incongruent",0.86,1.05,0.94,1.07,3.92,"<div style=""font-size:30px;"">shark</div>",0,-1.52192540322581,6.29894924685594,0
"178","1h2jd9ubc2wd973d5d7zh1jbmluo96k6","condswitch",502,"nosm","animacy","repetition","l",1,1,2,"masked",0.05,"incongruent",0.86,1.05,0.94,1.07,3.92,"<div style=""font-size:30px;"">button</div>",0,-0.521925403225806,6.21860011969173,0
"179","1h2jd9ubc2wd973d5d7zh1jbmluo96k6","condswitch",521,"nola","animacy","repetition","l",1,2,2,"masked",0.01,"congruent",0.86,1.05,0.94,1.07,3.92,"<div style=""font-size:30px;"">fireplace</div>",0,-0.521925403225806,6.25575004175337,0
"180","1h2jd9ubc2wd973d5d7zh1jbmluo96k6","condswitch",599,"lila","animacy","repetition","k",1,3,2,"masked",0.01,"incongruent",0.86,1.05,0.94,1.07,3.92,"<div style=""font-size:30px;"">rhinoceros</div>",0,-0.521925403225806,6.39526159811545,0
"181","1h2jd9ubc2wd973d5d7zh1jbmluo96k6","condswitch",662,"lism","animacy","repetition","k",1,4,2,"masked",0.01,"congruent",0.86,1.05,0.94,1.07,3.92,"<div style=""font-size:30px;"">wasp</div>",0,-0.521925403225806,6.49526555593701,0
"182","1h2jd9ubc2wd973d5d7zh1jbmluo96k6","condswitch",552,"lila","animacy","repetition","k",1,5,2,"masked",0.05,"incongruent",0.86,1.05,0.94,1.07,3.92,"<div style=""font-size:30px;"">dog</div>",0,-0.521925403225806,6.31354804627709,0
"183","1h2jd9ubc2wd973d5d7zh1jbmluo96k6","condswitch",501,"nola","animacy","repetition","l",1,6,2,"masked",0.01,"congruent",0.86,1.05,0.94,1.07,3.92,"<div style=""font-size:30px;"">oven</div>",0,-0.521925403225806,6.21660610108486,0
"184","1h2jd9ubc2wd973d5d7zh1jbmluo96k6","condswitch",619,"nosm","animacy","repetition","l",1,7,2,"masked",0.01,"incongruent",0.86,1.05,0.94,1.07,3.92,"<div style=""font-size:30px;"">knob</div>",0,-0.521925403225806,6.4281052726846,0
"185","1h2jd9ubc2wd973d5d7zh1jbmluo96k6","condswitch",797,"nosm","animacy","repetition","l",1,8,2,"masked",0.01,"incongruent",0.86,1.05,0.94,1.07,3.92,"<div style=""font-size:30px;"">soda</div>",0,-0.521925403225806,6.68085467879022,0
"186","1h2jd9ubc2wd973d5d7zh1jbmluo96k6","condswitch",605,"nola","animacy","repetition","l",1,9,2,"masked",0.01,"congruent",0.86,1.05,0.94,1.07,3.92,"<div style=""font-size:30px;"">cart</div>",0,-0.521925403225806,6.40522845803084,0
"187","1h2jd9ubc2wd973d5d7zh1jbmluo96k6","condswitch",670,"nola","animacy","repetition","l",1,10,2,"masked",0.01,"congruent",0.86,1.05,0.94,1.07,3.92,"<div style=""font-size:30px;"">mannequin</div>",0,-0.521925403225806,6.50727771238501,0
"188","1h2jd9ubc2wd973d5d7zh1jbmluo96k6","condswitch",685,"lism","animacy","repetition","k",1,11,2,"masked",0.01,"congruent",0.86,1.05,0.94,1.07,3.92,"<div style=""font-size:30px;"">bug</div>",0,-0.521925403225806,6.52941883826223,0
"189","1h2jd9ubc2wd973d5d7zh1jbmluo96k6","condswitch",671,"lila","animacy","repetition","k",1,12,2,"masked",0.01,"incongruent",0.86,1.05,0.94,1.07,3.92,"<div style=""font-size:30px;"">hyena</div>",0,-0.521925403225806,6.50876913697168,0
"190","1h2jd9ubc2wd973d5d7zh1jbmluo96k6","condswitch",527,"lism","animacy","repetition","k",1,13,2,"masked",0.01,"congruent",0.86,1.05,0.94,1.07,3.92,"<div style=""font-size:30px;"">mosquito</div>",0,-0.521925403225806,6.26720054854136,0
"191","1h2jd9ubc2wd973d5d7zh1jbmluo96k6","condswitch",693,"nola","animacy","repetition","l",1,14,2,"masked",0.01,"congruent",0.86,1.05,0.94,1.07,3.92,"<div style=""font-size:30px;"">mansion</div>",0,-0.521925403225806,6.5410299991899,0
"192","1h2jd9ubc2wd973d5d7zh1jbmluo96k6","condswitch",568,"lila","animacy","repetition","k",1,15,2,"masked",0.01,"incongruent",0.86,1.05,0.94,1.07,3.92,"<div style=""font-size:30px;"">tiger</div>",0,-0.521925403225806,6.34212141872115,0
"193","1h2jd9ubc2wd973d5d7zh1jbmluo96k6","condswitch",744,"nosm","animacy","repetition","l",1,16,2,"masked",0.01,"incongruent",0.86,1.05,0.94,1.07,3.92,"<div style=""font-size:30px;"">flask</div>",0,-0.521925403225806,6.61204103483309,0
"194","1h2jd9ubc2wd973d5d7zh1jbmluo96k6","condswitch",692,"lism","animacy","repetition","k",1,17,2,"masked",0.01,"congruent",0.86,1.05,0.94,1.07,3.92,"<div style=""font-size:30px;"">shrimp</div>",0,-0.521925403225806,6.53958595561767,0
"195","1h2jd9ubc2wd973d5d7zh1jbmluo96k6","condswitch",640,"nosm","animacy","repetition","l",1,18,2,"masked",0.01,"incongruent",0.86,1.05,0.94,1.07,3.92,"<div style=""font-size:30px;"">razor</div>",0,-0.521925403225806,6.46146817635372,0
"196","1h2jd9ubc2wd973d5d7zh1jbmluo96k6","condswitch",507,"nosm","animacy","repetition","l",1,19,2,"masked",0.01,"incongruent",0.86,1.05,0.94,1.07,3.92,"<div style=""font-size:30px;"">ticket</div>",0,-0.521925403225806,6.22851100359118,0
"197","1h2jd9ubc2wd973d5d7zh1jbmluo96k6","condswitch",459,"lila","animacy","repetition","k",1,20,2,"masked",0.05,"incongruent",0.86,1.05,0.94,1.07,3.92,"<div style=""font-size:30px;"">alligator</div>",0,-0.521925403225806,6.12905021006055,0
"198","1h2jd9ubc2wd973d5d7zh1jbmluo96k6","condswitch",874,"lism","animacy","repetition","k",1,21,2,"masked",0.05,"congruent",0.86,1.05,0.94,1.07,3.92,"<div style=""font-size:30px;"">apricot</div>",0,-0.521925403225806,6.77308037565554,0
"199","1h2jd9ubc2wd973d5d7zh1jbmluo96k6","condswitch",703,"nola","animacy","repetition","l",1,22,2,"masked",0.01,"congruent",0.86,1.05,0.94,1.07,3.92,"<div style=""font-size:30px;"">raft</div>",0,-0.521925403225806,6.55535689181067,0
"200","1h2jd9ubc2wd973d5d7zh1jbmluo96k6","condswitch",651,"lila","animacy","repetition","k",1,23,2,"masked",0.01,"incongruent",0.86,1.05,0.94,1.07,3.92,"<div style=""font-size:30px;"">goat</div>",0,-0.521925403225806,6.47850964220857,0
"201","1h2jd9ubc2wd973d5d7zh1jbmluo96k6","condswitch",598,"lism","animacy","repetition","k",1,24,2,"masked",0.01,"congruent",0.86,1.05,0.94,1.07,3.92,"<div style=""font-size:30px;"">frog</div>",0,-0.521925403225806,6.39359075395063,0
"202","1h2jd9ubc2wd973d5d7zh1jbmluo96k6","condswitch",587,"lism","animacy","repetition","k",1,25,2,"masked",0.01,"congruent",0.86,1.05,0.94,1.07,3.92,"<div style=""font-size:30px;"">cauliflower</div>",0,-0.521925403225806,6.3750248198281,0
"203","1h2jd9ubc2wd973d5d7zh1jbmluo96k6","condswitch",587,"nola","animacy","repetition","l",1,26,2,"masked",0.01,"congruent",0.86,1.05,0.94,1.07,3.92,"<div style=""font-size:30px;"">cavern</div>",0,-0.521925403225806,6.3750248198281,0
"204","1h2jd9ubc2wd973d5d7zh1jbmluo96k6","condswitch",610,"nola","animacy","repetition","l",1,27,2,"masked",0.01,"congruent",0.86,1.05,0.94,1.07,3.92,"<div style=""font-size:30px;"">saturn</div>",0,-0.521925403225806,6.41345895716736,0
"205","1h2jd9ubc2wd973d5d7zh1jbmluo96k6","condswitch",664,"lila","animacy","repetition","k",1,28,2,"masked",0.01,"incongruent",0.86,1.05,0.94,1.07,3.92,"<div style=""font-size:30px;"">walrus</div>",0,-0.521925403225806,6.49828214947643,0
"206","1h2jd9ubc2wd973d5d7zh1jbmluo96k6","condswitch",855,"nola","animacy","repetition","l",1,29,2,"masked",0.01,"congruent",0.86,1.05,0.94,1.07,3.92,"<div style=""font-size:30px;"">galaxy</div>",0,-0.521925403225806,6.75110146893676,0
"207","1h2jd9ubc2wd973d5d7zh1jbmluo96k6","condswitch",664,"nola","animacy","repetition","l",1,30,2,"masked",0.01,"congruent",0.86,1.05,0.94,1.07,3.92,"<div style=""font-size:30px;"">sofa</div>",0,-0.521925403225806,6.49828214947643,0
"208","1h2jd9ubc2wd973d5d7zh1jbmluo96k6","condswitch",610,"lism","animacy","repetition","k",1,32,2,"masked",0.01,"congruent",0.86,1.05,0.94,1.07,3.92,"<div style=""font-size:30px;"">flea</div>",0,-0.521925403225806,6.41345895716736,0
"209","1h2jd9ubc2wd973d5d7zh1jbmluo96k6","condswitch",496,"lila","animacy","repetition","k",1,33,2,"masked",0.01,"incongruent",0.86,1.05,0.94,1.07,3.92,"<div style=""font-size:30px;"">antelope</div>",0,-0.521925403225806,6.20657592672493,0
"210","1h2jd9ubc2wd973d5d7zh1jbmluo96k6","condswitch",821,"nosm","animacy","repetition","l",1,34,2,"masked",0.01,"incongruent",0.86,1.05,0.94,1.07,3.92,"<div style=""font-size:30px;"">needle</div>",0,-0.521925403225806,6.71052310945243,0
"211","1h2jd9ubc2wd973d5d7zh1jbmluo96k6","condswitch",669,"lila","animacy","repetition","k",1,35,2,"masked",0.01,"incongruent",0.86,1.05,0.94,1.07,3.92,"<div style=""font-size:30px;"">elk</div>",0,-0.521925403225806,6.50578406012823,0
"212","1h2jd9ubc2wd973d5d7zh1jbmluo96k6","condswitch",761,"lism","animacy","repetition","k",1,36,2,"masked",0.01,"congruent",0.86,1.05,0.94,1.07,3.92,"<div style=""font-size:30px;"">salamander</div>",0,-0.521925403225806,6.63463335786169,0
"213","1h2jd9ubc2wd973d5d7zh1jbmluo96k6","condswitch",614,"nosm","animacy","repetition","l",1,37,2,"masked",0.01,"incongruent",0.86,1.05,0.94,1.07,3.92,"<div style=""font-size:30px;"">bandage</div>",0,-0.521925403225806,6.41999492814714,0
"214","1h2jd9ubc2wd973d5d7zh1jbmluo96k6","condswitch",594,"nosm","animacy","repetition","l",1,38,2,"masked",0.01,"incongruent",0.86,1.05,0.94,1.07,3.92,"<div style=""font-size:30px;"">calculator</div>",0,-0.521925403225806,6.38687931936265,0
"215","1h2jd9ubc2wd973d5d7zh1jbmluo96k6","condswitch",629,"nosm","animacy","repetition","l",1,39,2,"masked",0.01,"incongruent",0.86,1.05,0.94,1.07,3.92,"<div style=""font-size:30px;"">softball</div>",0,-0.521925403225806,6.44413125670044,0
"216","1h2jd9ubc2wd973d5d7zh1jbmluo96k6","condswitch",544,"lila","animacy","repetition","k",1,1,3,"masked",0.01,"incongruent",0.86,1.05,0.94,1.07,3.92,"<div style=""font-size:30px;"">hawk</div>",0,0.478074596774194,6.29894924685594,0
"217","1h2jd9ubc2wd973d5d7zh1jbmluo96k6","condswitch",512,"lila","animacy","repetition","k",1,2,3,"masked",0.01,"incongruent",0.86,1.05,0.94,1.07,3.92,"<div style=""font-size:30px;"">wolverine</div>",0,0.478074596774194,6.23832462503951,0
"218","1h2jd9ubc2wd973d5d7zh1jbmluo96k6","condswitch",499,"lism","animacy","repetition","k",1,3,3,"masked",0.01,"congruent",0.86,1.05,0.94,1.07,3.92,"<div style=""font-size:30px;"">spider</div>",0,0.478074596774194,6.21260609575152,0
"219","1h2jd9ubc2wd973d5d7zh1jbmluo96k6","condswitch",495,"lism","animacy","repetition","k",1,4,3,"masked",0.05,"congruent",0.86,1.05,0.94,1.07,3.92,"<div style=""font-size:30px;"">blueberry</div>",0,0.478074596774194,6.20455776256869,0
"220","1h2jd9ubc2wd973d5d7zh1jbmluo96k6","condswitch",512,"nola","animacy","repetition","l",1,5,3,"masked",0.01,"congruent",0.86,1.05,0.94,1.07,3.92,"<div style=""font-size:30px;"">sleigh</div>",0,0.478074596774194,6.23832462503951,0
"221","1h2jd9ubc2wd973d5d7zh1jbmluo96k6","condswitch",651,"nosm","animacy","repetition","l",1,6,3,"masked",0.01,"incongruent",0.86,1.05,0.94,1.07,3.92,"<div style=""font-size:30px;"">scalpel</div>",0,0.478074596774194,6.47850964220857,0
"222","1h2jd9ubc2wd973d5d7zh1jbmluo96k6","condswitch",605,"lila","animacy","repetition","k",1,10,3,"masked",0.01,"incongruent",0.86,1.05,0.94,1.07,3.92,"<div style=""font-size:30px;"">kangaroo</div>",0,0.478074596774194,6.40522845803084,0
"223","1h2jd9ubc2wd973d5d7zh1jbmluo96k6","condswitch",686,"nola","animacy","repetition","l",1,11,3,"masked",0.01,"congruent",0.86,1.05,0.94,1.07,3.92,"<div style=""font-size:30px;"">rowboat</div>",0,0.478074596774194,6.53087762772588,0
"224","1h2jd9ubc2wd973d5d7zh1jbmluo96k6","condswitch",604,"lila","animacy","repetition","k",1,12,3,"masked",0.01,"incongruent",0.86,1.05,0.94,1.07,3.92,"<div style=""font-size:30px;"">panther</div>",0,0.478074596774194,6.40357419793482,0
"225","1h2jd9ubc2wd973d5d7zh1jbmluo96k6","condswitch",652,"lila","animacy","repetition","k",1,13,3,"masked",0.01,"incongruent",0.86,1.05,0.94,1.07,3.92,"<div style=""font-size:30px;"">cougar</div>",0,0.478074596774194,6.48004456192665,0
"226","1h2jd9ubc2wd973d5d7zh1jbmluo96k6","condswitch",788,"nosm","animacy","repetition","l",1,14,3,"masked",0.01,"incongruent",0.86,1.05,0.94,1.07,3.92,"<div style=""font-size:30px;"">nickel</div>",0,0.478074596774194,6.66949808985788,0
"227","1h2jd9ubc2wd973d5d7zh1jbmluo96k6","condswitch",576,"lila","animacy","repetition","k",1,15,3,"masked",0.01,"incongruent",0.86,1.05,0.94,1.07,3.92,"<div style=""font-size:30px;"">flamingo</div>",0,0.478074596774194,6.35610766069589,0
"228","1h2jd9ubc2wd973d5d7zh1jbmluo96k6","condswitch",614,"nola","animacy","repetition","l",1,16,3,"masked",0.01,"congruent",0.86,1.05,0.94,1.07,3.92,"<div style=""font-size:30px;"">stove</div>",0,0.478074596774194,6.41999492814714,0
"229","1h2jd9ubc2wd973d5d7zh1jbmluo96k6","condswitch",571,"lism","animacy","repetition","k",1,17,3,"masked",0.01,"congruent",0.86,1.05,0.94,1.07,3.92,"<div style=""font-size:30px;"">rodent</div>",0,0.478074596774194,6.34738920965601,0
"230","1h2jd9ubc2wd973d5d7zh1jbmluo96k6","condswitch",567,"nola","animacy","repetition","l",1,18,3,"masked",0.01,"congruent",0.86,1.05,0.94,1.07,3.92,"<div style=""font-size:30px;"">barrel</div>",0,0.478074596774194,6.34035930372775,0
"231","1h2jd9ubc2wd973d5d7zh1jbmluo96k6","condswitch",763,"nola","animacy","repetition","l",1,20,3,"masked",0.01,"congruent",0.86,1.05,0.94,1.07,3.92,"<div style=""font-size:30px;"">kite</div>",0,0.478074596774194,6.63725803128446,0
"232","1h2jd9ubc2wd973d5d7zh1jbmluo96k6","condswitch",656,"lism","animacy","repetition","k",1,21,3,"masked",0.01,"congruent",0.86,1.05,0.94,1.07,3.92,"<div style=""font-size:30px;"">moth</div>",0,0.478074596774194,6.48616078894409,0
"233","1h2jd9ubc2wd973d5d7zh1jbmluo96k6","condswitch",698,"nosm","animacy","repetition","l",1,22,3,"masked",0.01,"incongruent",0.86,1.05,0.94,1.07,3.92,"<div style=""font-size:30px;"">staple</div>",0,0.478074596774194,6.54821910276237,0
"234","1h2jd9ubc2wd973d5d7zh1jbmluo96k6","condswitch",674,"nola","animacy","repetition","l",1,23,3,"masked",0.01,"congruent",0.86,1.05,0.94,1.07,3.92,"<div style=""font-size:30px;"">windshield</div>",0,0.478074596774194,6.51323011091231,0
"235","1h2jd9ubc2wd973d5d7zh1jbmluo96k6","condswitch",585,"nosm","animacy","repetition","l",1,24,3,"masked",0.01,"incongruent",0.86,1.05,0.94,1.07,3.92,"<div style=""font-size:30px;"">toothbrush</div>",0,0.478074596774194,6.37161184723186,0
"236","1h2jd9ubc2wd973d5d7zh1jbmluo96k6","condswitch",542,"lila","animacy","repetition","k",1,25,3,"masked",0.01,"incongruent",0.86,1.05,0.94,1.07,3.92,"<div style=""font-size:30px;"">zebra</div>",0,0.478074596774194,6.29526600143965,0
"237","1h2jd9ubc2wd973d5d7zh1jbmluo96k6","condswitch",591,"nosm","animacy","repetition","l",1,26,3,"masked",0.01,"incongruent",0.86,1.05,0.94,1.07,3.92,"<div style=""font-size:30px;"">handcuffs</div>",0,0.478074596774194,6.3818160174061,0
"238","1h2jd9ubc2wd973d5d7zh1jbmluo96k6","condswitch",823,"lism","animacy","repetition","k",1,27,3,"masked",0.01,"congruent",0.86,1.05,0.94,1.07,3.92,"<div style=""font-size:30px;"">lily</div>",0,0.478074596774194,6.71295620067707,0
"239","1h2jd9ubc2wd973d5d7zh1jbmluo96k6","condswitch",619,"lism","animacy","repetition","k",1,28,3,"masked",0.01,"congruent",0.86,1.05,0.94,1.07,3.92,"<div style=""font-size:30px;"">butterfly</div>",0,0.478074596774194,6.4281052726846,0
"240","1h2jd9ubc2wd973d5d7zh1jbmluo96k6","condswitch",648,"lila","animacy","repetition","k",1,29,3,"masked",0.01,"incongruent",0.86,1.05,0.94,1.07,3.92,"<div style=""font-size:30px;"">beaver</div>",0,0.478074596774194,6.47389069635227,0
"241","1h2jd9ubc2wd973d5d7zh1jbmluo96k6","condswitch",524,"lila","animacy","repetition","k",1,30,3,"masked",0.01,"incongruent",0.86,1.05,0.94,1.07,3.92,"<div style=""font-size:30px;"">lion</div>",0,0.478074596774194,6.26149168432104,0
"242","1h2jd9ubc2wd973d5d7zh1jbmluo96k6","condswitch",758,"nola","animacy","repetition","l",1,31,3,"masked",0.01,"congruent",0.86,1.05,0.94,1.07,3.92,"<div style=""font-size:30px;"">canoe</div>",0,0.478074596774194,6.63068338564237,0
"243","1h2jd9ubc2wd973d5d7zh1jbmluo96k6","condswitch",635,"lism","animacy","repetition","k",1,33,3,"masked",0.01,"congruent",0.86,1.05,0.94,1.07,3.92,"<div style=""font-size:30px;"">potato</div>",0,0.478074596774194,6.45362499889269,0
"244","1h2jd9ubc2wd973d5d7zh1jbmluo96k6","condswitch",598,"lism","animacy","repetition","k",1,34,3,"masked",0.01,"congruent",0.86,1.05,0.94,1.07,3.92,"<div style=""font-size:30px;"">bee</div>",0,0.478074596774194,6.39359075395063,0
"245","1h2jd9ubc2wd973d5d7zh1jbmluo96k6","condswitch",641,"nosm","animacy","repetition","l",1,35,3,"masked",0.01,"incongruent",0.86,1.05,0.94,1.07,3.92,"<div style=""font-size:30px;"">dime</div>",0,0.478074596774194,6.46302945692067,0
"246","1h2jd9ubc2wd973d5d7zh1jbmluo96k6","condswitch",827,"nosm","animacy","repetition","l",1,36,3,"masked",0.01,"incongruent",0.86,1.05,0.94,1.07,3.92,"<div style=""font-size:30px;"">badge</div>",0,0.478074596774194,6.71780469502369,0
"247","1h2jd9ubc2wd973d5d7zh1jbmluo96k6","condswitch",660,"nosm","animacy","repetition","l",1,37,3,"masked",0.01,"incongruent",0.86,1.05,0.94,1.07,3.92,"<div style=""font-size:30px;"">coupon</div>",0,0.478074596774194,6.49223983502047,0
"248","1h2jd9ubc2wd973d5d7zh1jbmluo96k6","condswitch",572,"lila","animacy","repetition","k",1,38,3,"masked",0.01,"incongruent",0.86,1.05,0.94,1.07,3.92,"<div style=""font-size:30px;"">pig</div>",0,0.478074596774194,6.3491389913798,0
"249","1h2jd9ubc2wd973d5d7zh1jbmluo96k6","condswitch",657,"nola","animacy","repetition","l",1,39,3,"masked",0.01,"congruent",0.86,1.05,0.94,1.07,3.92,"<div style=""font-size:30px;"">vault</div>",0,0.478074596774194,6.48768401848461,0
"250","1h2jd9ubc2wd973d5d7zh1jbmluo96k6","condswitch",665,"lila","animacy","repetition","k",1,1,4,"masked",0.01,"incongruent",0.86,1.05,0.94,1.07,3.92,"<div style=""font-size:30px;"">mule</div>",0,1.47807459677419,6.49978704065585,0
"251","1h2jd9ubc2wd973d5d7zh1jbmluo96k6","condswitch",761,"lism","animacy","repetition","k",1,2,4,"masked",0.05,"congruent",0.86,1.05,0.94,1.07,3.92,"<div style=""font-size:30px;"">pigeon</div>",0,1.47807459677419,6.63463335786169,0
"252","1h2jd9ubc2wd973d5d7zh1jbmluo96k6","condswitch",752,"lila","animacy","repetition","k",1,3,4,"masked",0.01,"incongruent",0.86,1.05,0.94,1.07,3.92,"<div style=""font-size:30px;"">elm</div>",0,1.47807459677419,6.62273632394984,0
"253","1h2jd9ubc2wd973d5d7zh1jbmluo96k6","condswitch",793,"nosm","animacy","repetition","l",1,4,4,"masked",0.01,"incongruent",0.86,1.05,0.94,1.07,3.92,"<div style=""font-size:30px;"">ruby</div>",0,1.47807459677419,6.67582322163485,0
"254","1h2jd9ubc2wd973d5d7zh1jbmluo96k6","condswitch",714,"nola","animacy","repetition","l",1,5,4,"masked",0.01,"congruent",0.86,1.05,0.94,1.07,3.92,"<div style=""font-size:30px;"">dungeon</div>",0,1.47807459677419,6.57088296233958,0
"255","1h2jd9ubc2wd973d5d7zh1jbmluo96k6","condswitch",649,"lism","animacy","repetition","k",1,6,4,"masked",0.01,"congruent",0.86,1.05,0.94,1.07,3.92,"<div style=""font-size:30px;"">goldfish</div>",0,1.47807459677419,6.47543271670409,0
"256","1h2jd9ubc2wd973d5d7zh1jbmluo96k6","condswitch",593,"nola","animacy","repetition","l",1,7,4,"masked",0.01,"congruent",0.86,1.05,0.94,1.07,3.92,"<div style=""font-size:30px;"">jupiter</div>",0,1.47807459677419,6.38519439899773,0
"257","1h2jd9ubc2wd973d5d7zh1jbmluo96k6","condswitch",595,"nosm","animacy","repetition","l",1,8,4,"masked",0.01,"incongruent",0.86,1.05,0.94,1.07,3.92,"<div style=""font-size:30px;"">screwdriver</div>",0,1.47807459677419,6.38856140554563,0
"258","1h2jd9ubc2wd973d5d7zh1jbmluo96k6","condswitch",525,"nosm","animacy","repetition","l",1,9,4,"masked",0.01,"incongruent",0.86,1.05,0.94,1.07,3.92,"<div style=""font-size:30px;"">wallet</div>",0,1.47807459677419,6.26339826259162,0
"259","1h2jd9ubc2wd973d5d7zh1jbmluo96k6","condswitch",592,"lism","animacy","repetition","k",1,11,4,"masked",0.01,"congruent",0.86,1.05,0.94,1.07,3.92,"<div style=""font-size:30px;"">dove</div>",0,1.47807459677419,6.38350663488401,0
"260","1h2jd9ubc2wd973d5d7zh1jbmluo96k6","condswitch",685,"nola","animacy","repetition","l",1,12,4,"masked",0.01,"congruent",0.86,1.05,0.94,1.07,3.92,"<div style=""font-size:30px;"">windmill</div>",0,1.47807459677419,6.52941883826223,0
"261","1h2jd9ubc2wd973d5d7zh1jbmluo96k6","condswitch",702,"lism","animacy","repetition","k",1,13,4,"masked",0.01,"congruent",0.86,1.05,0.94,1.07,3.92,"<div style=""font-size:30px;"">carrot</div>",0,1.47807459677419,6.55393340402581,0
"262","1h2jd9ubc2wd973d5d7zh1jbmluo96k6","condswitch",718,"nola","animacy","repetition","l",1,14,4,"masked",0.01,"congruent",0.86,1.05,0.94,1.07,3.92,"<div style=""font-size:30px;"">hammock</div>",0,1.47807459677419,6.57646956904822,0
"263","1h2jd9ubc2wd973d5d7zh1jbmluo96k6","condswitch",702,"lila","animacy","repetition","k",1,15,4,"masked",0.01,"incongruent",0.86,1.05,0.94,1.07,3.92,"<div style=""font-size:30px;"">cheetah</div>",0,1.47807459677419,6.55393340402581,0
"264","1h2jd9ubc2wd973d5d7zh1jbmluo96k6","condswitch",602,"nosm","animacy","repetition","l",1,16,4,"masked",0.01,"incongruent",0.86,1.05,0.94,1.07,3.92,"<div style=""font-size:30px;"">candle</div>",0,1.47807459677419,6.40025744530882,0
"265","1h2jd9ubc2wd973d5d7zh1jbmluo96k6","condswitch",744,"lism","animacy","repetition","k",1,17,4,"masked",0.01,"congruent",0.86,1.05,0.94,1.07,3.92,"<div style=""font-size:30px;"">tulip</div>",0,1.47807459677419,6.61204103483309,0
"266","1h2jd9ubc2wd973d5d7zh1jbmluo96k6","condswitch",602,"lila","animacy","repetition","k",1,18,4,"masked",0.01,"incongruent",0.86,1.05,0.94,1.07,3.92,"<div style=""font-size:30px;"">donkey</div>",0,1.47807459677419,6.40025744530882,0
"267","1h2jd9ubc2wd973d5d7zh1jbmluo96k6","condswitch",735,"lila","animacy","repetition","k",1,19,4,"masked",0.01,"incongruent",0.86,1.05,0.94,1.07,3.92,"<div style=""font-size:30px;"">tree</div>",0,1.47807459677419,6.59987049921284,0
"268","1h2jd9ubc2wd973d5d7zh1jbmluo96k6","condswitch",873,"nola","animacy","repetition","l",1,20,4,"masked",0.01,"congruent",0.86,1.05,0.94,1.07,3.92,"<div style=""font-size:30px;"">glacier</div>",0,1.47807459677419,6.7719355558396,0
"269","1h2jd9ubc2wd973d5d7zh1jbmluo96k6","condswitch",685,"nosm","animacy","repetition","l",1,21,4,"masked",0.01,"incongruent",0.86,1.05,0.94,1.07,3.92,"<div style=""font-size:30px;"">jewel</div>",0,1.47807459677419,6.52941883826223,0
"270","1h2jd9ubc2wd973d5d7zh1jbmluo96k6","condswitch",607,"nola","animacy","repetition","l",1,22,4,"masked",0.05,"congruent",0.86,1.05,0.94,1.07,3.92,"<div style=""font-size:30px;"">casket</div>",0,1.47807459677419,6.4085287910595,0
"271","1h2jd9ubc2wd973d5d7zh1jbmluo96k6","condswitch",606,"nola","animacy","repetition","l",1,24,4,"masked",0.01,"congruent",0.86,1.05,0.94,1.07,3.92,"<div style=""font-size:30px;"">mattress</div>",0,1.47807459677419,6.40687998606931,0
"272","1h2jd9ubc2wd973d5d7zh1jbmluo96k6","condswitch",704,"nosm","animacy","repetition","l",1,25,4,"masked",0.01,"incongruent",0.86,1.05,0.94,1.07,3.92,"<div style=""font-size:30px;"">cigar</div>",0,1.47807459677419,6.55677835615804,0
"273","1h2jd9ubc2wd973d5d7zh1jbmluo96k6","condswitch",667,"nola","animacy","repetition","l",1,26,4,"masked",0.01,"congruent",0.86,1.05,0.94,1.07,3.92,"<div style=""font-size:30px;"">canal</div>",0,1.47807459677419,6.50279004591562,0
"274","1h2jd9ubc2wd973d5d7zh1jbmluo96k6","condswitch",559,"lila","animacy","repetition","k",1,27,4,"masked",0.01,"incongruent",0.86,1.05,0.94,1.07,3.92,"<div style=""font-size:30px;"">sheep</div>",0,1.47807459677419,6.3261494731551,0
"275","1h2jd9ubc2wd973d5d7zh1jbmluo96k6","condswitch",644,"nola","animacy","repetition","l",1,28,4,"masked",0.01,"congruent",0.86,1.05,0.94,1.07,3.92,"<div style=""font-size:30px;"">saxophone</div>",0,1.47807459677419,6.46769872610435,0
"276","1h2jd9ubc2wd973d5d7zh1jbmluo96k6","condswitch",691,"lism","animacy","repetition","k",1,29,4,"masked",0.01,"congruent",0.86,1.05,0.94,1.07,3.92,"<div style=""font-size:30px;"">weasel</div>",0,1.47807459677419,6.53813982376767,0
"277","1h2jd9ubc2wd973d5d7zh1jbmluo96k6","condswitch",691,"lism","animacy","repetition","k",1,30,4,"masked",0.01,"congruent",0.86,1.05,0.94,1.07,3.92,"<div style=""font-size:30px;"">mushroom</div>",0,1.47807459677419,6.53813982376767,0
"278","1h2jd9ubc2wd973d5d7zh1jbmluo96k6","condswitch",734,"nosm","animacy","repetition","l",1,31,4,"masked",0.01,"incongruent",0.86,1.05,0.94,1.07,3.92,"<div style=""font-size:30px;"">cork</div>",0,1.47807459677419,6.59850902861452,0
"279","1h2jd9ubc2wd973d5d7zh1jbmluo96k6","condswitch",683,"nosm","animacy","repetition","l",1,32,4,"masked",0.01,"incongruent",0.86,1.05,0.94,1.07,3.92,"<div style=""font-size:30px;"">soap</div>",0,1.47807459677419,6.52649485957079,0
"280","1h2jd9ubc2wd973d5d7zh1jbmluo96k6","condswitch",782,"nosm","animacy","repetition","l",1,33,4,"masked",0.01,"incongruent",0.86,1.05,0.94,1.07,3.92,"<div style=""font-size:30px;"">neutron</div>",0,1.47807459677419,6.66185474054531,0
"281","1h2jd9ubc2wd973d5d7zh1jbmluo96k6","condswitch",605,"nosm","animacy","repetition","l",1,35,4,"masked",0.01,"incongruent",0.86,1.05,0.94,1.07,3.92,"<div style=""font-size:30px;"">eraser</div>",0,1.47807459677419,6.40522845803084,0
"282","1h2jd9ubc2wd973d5d7zh1jbmluo96k6","condswitch",578,"lila","animacy","repetition","k",1,36,4,"masked",0.01,"incongruent",0.86,1.05,0.94,1.07,3.92,"<div style=""font-size:30px;"">bear</div>",0,1.47807459677419,6.35957386867238,0
"283","1h2jd9ubc2wd973d5d7zh1jbmluo96k6","condswitch",742,"lism","animacy","repetition","k",1,37,4,"masked",0.01,"congruent",0.86,1.05,0.94,1.07,3.92,"<div style=""font-size:30px;"">germ</div>",0,1.47807459677419,6.60934924316738,0
"284","1h2jd9ubc2wd973d5d7zh1jbmluo96k6","condswitch",610,"nola","animacy","repetition","l",1,38,4,"masked",0.01,"congruent",0.86,1.05,0.94,1.07,3.92,"<div style=""font-size:30px;"">shield</div>",0,1.47807459677419,6.41345895716736,0
"285","1h2jd9ubc2wd973d5d7zh1jbmluo96k6","condswitch",629,"lila","animacy","repetition","k",1,39,4,"masked",0.01,"incongruent",0.86,1.05,0.94,1.07,3.92,"<div style=""font-size:30px;"">octopus</div>",0,1.47807459677419,6.44413125670044,0
"286","2ee93of54vphdx349yk4o7k2ufhl92m4","condrepetition",642,"nola","animacy","repetition","k",1,2,1,"masked",0.05,"incongruent",3.59,3.6,3.6,3.52,14.31,"<div style=""font-size:30px;"">sofa</div>",0,-1.52192540322581,6.46458830368996,0
"287","2ee93of54vphdx349yk4o7k2ufhl92m4","condrepetition",756,"nosm","animacy","repetition","k",1,4,1,"masked",0.05,"congruent",3.59,3.6,3.6,3.52,14.31,"<div style=""font-size:30px;"">whistle</div>",0,-1.52192540322581,6.62804137617953,0
"288","2ee93of54vphdx349yk4o7k2ufhl92m4","condrepetition",566,"lism","animacy","repetition","l",1,5,1,"masked",0.05,"incongruent",3.59,3.6,3.6,3.52,14.31,"<div style=""font-size:30px;"">peach</div>",0,-1.52192540322581,6.33859407820318,0
"289","2ee93of54vphdx349yk4o7k2ufhl92m4","condrepetition",593,"lila","animacy","repetition","l",1,6,1,"masked",0.05,"congruent",3.59,3.6,3.6,3.52,14.31,"<div style=""font-size:30px;"">crocodile</div>",0,-1.52192540322581,6.38519439899773,0
"290","2ee93of54vphdx349yk4o7k2ufhl92m4","condrepetition",692,"lila","animacy","repetition","l",1,9,1,"masked",0.05,"congruent",3.59,3.6,3.6,3.52,14.31,"<div style=""font-size:30px;"">panther</div>",0,-1.52192540322581,6.53958595561767,0
"291","2ee93of54vphdx349yk4o7k2ufhl92m4","condrepetition",619,"lila","animacy","repetition","l",1,10,1,"masked",0.01,"congruent",3.59,3.6,3.6,3.52,14.31,"<div style=""font-size:30px;"">hippo</div>",0,-1.52192540322581,6.4281052726846,0
"292","2ee93of54vphdx349yk4o7k2ufhl92m4","condrepetition",689,"nosm","animacy","repetition","k",1,11,1,"masked",0.05,"congruent",3.59,3.6,3.6,3.52,14.31,"<div style=""font-size:30px;"">marble</div>",0,-1.52192540322581,6.53524127101366,0
"293","2ee93of54vphdx349yk4o7k2ufhl92m4","condrepetition",693,"nola","animacy","repetition","k",1,12,1,"masked",0.05,"incongruent",3.59,3.6,3.6,3.52,14.31,"<div style=""font-size:30px;"">kite</div>",0,-1.52192540322581,6.5410299991899,0
"294","2ee93of54vphdx349yk4o7k2ufhl92m4","condrepetition",639,"nola","animacy","repetition","k",1,13,1,"masked",0.05,"incongruent",3.59,3.6,3.6,3.52,14.31,"<div style=""font-size:30px;"">surfboard</div>",0,-1.52192540322581,6.45990445437753,0
"295","2ee93of54vphdx349yk4o7k2ufhl92m4","condrepetition",562,"nola","animacy","repetition","k",1,15,1,"masked",0.05,"incongruent",3.59,3.6,3.6,3.52,14.31,"<div style=""font-size:30px;"">rocket</div>",0,-1.52192540322581,6.33150184989369,0
"296","2ee93of54vphdx349yk4o7k2ufhl92m4","condrepetition",626,"nosm","animacy","repetition","k",1,16,1,"masked",0.05,"congruent",3.59,3.6,3.6,3.52,14.31,"<div style=""font-size:30px;"">harmonica</div>",0,-1.52192540322581,6.4393503711001,0
"297","2ee93of54vphdx349yk4o7k2ufhl92m4","condrepetition",697,"nola","animacy","repetition","k",1,17,1,"masked",0.05,"incongruent",3.59,3.6,3.6,3.52,14.31,"<div style=""font-size:30px;"">windshield</div>",0,-1.52192540322581,6.54678541076052,0
"298","2ee93of54vphdx349yk4o7k2ufhl92m4","condrepetition",753,"lism","animacy","repetition","l",1,18,1,"masked",0.05,"incongruent",3.59,3.6,3.6,3.52,14.31,"<div style=""font-size:30px;"">kitten</div>",0,-1.52192540322581,6.62406522779989,0
"299","2ee93of54vphdx349yk4o7k2ufhl92m4","condrepetition",798,"lism","animacy","repetition","l",1,19,1,"masked",0.05,"incongruent",3.59,3.6,3.6,3.52,14.31,"<div style=""font-size:30px;"">bacteria</div>",0,-1.52192540322581,6.68210859744981,0
"300","2ee93of54vphdx349yk4o7k2ufhl92m4","condrepetition",738,"nola","animacy","repetition","k",1,21,1,"masked",0.05,"incongruent",3.59,3.6,3.6,3.52,14.31,"<div style=""font-size:30px;"">ambulance</div>",0,-1.52192540322581,6.60394382460047,0
"301","2ee93of54vphdx349yk4o7k2ufhl92m4","condrepetition",561,"nola","animacy","repetition","k",1,22,1,"masked",0.05,"incongruent",3.59,3.6,3.6,3.52,14.31,"<div style=""font-size:30px;"">bathtub</div>",0,-1.52192540322581,6.3297209055227,0
"302","2ee93of54vphdx349yk4o7k2ufhl92m4","condrepetition",595,"nosm","animacy","repetition","k",1,23,1,"masked",0.01,"congruent",3.59,3.6,3.6,3.52,14.31,"<div style=""font-size:30px;"">handcuffs</div>",0,-1.52192540322581,6.38856140554563,0
"303","2ee93of54vphdx349yk4o7k2ufhl92m4","condrepetition",721,"nosm","animacy","repetition","k",1,24,1,"masked",0.05,"congruent",3.59,3.6,3.6,3.52,14.31,"<div style=""font-size:30px;"">keys</div>",0,-1.52192540322581,6.58063913728495,0
"304","2ee93of54vphdx349yk4o7k2ufhl92m4","condrepetition",611,"lila","animacy","repetition","l",1,25,1,"masked",0.05,"congruent",3.59,3.6,3.6,3.52,14.31,"<div style=""font-size:30px;"">monkey</div>",0,-1.52192540322581,6.4150969591716,0
"305","2ee93of54vphdx349yk4o7k2ufhl92m4","condrepetition",678,"nola","animacy","repetition","k",1,26,1,"masked",0.05,"incongruent",3.59,3.6,3.6,3.52,14.31,"<div style=""font-size:30px;"">billboard</div>",0,-1.52192540322581,6.5191472879404,0
"306","2ee93of54vphdx349yk4o7k2ufhl92m4","condrepetition",733,"nosm","animacy","repetition","k",1,27,1,"masked",0.05,"congruent",3.59,3.6,3.6,3.52,14.31,"<div style=""font-size:30px;"">cigar</div>",0,-1.52192540322581,6.59714570188665,0
"307","2ee93of54vphdx349yk4o7k2ufhl92m4","condrepetition",563,"lism","animacy","repetition","l",1,29,1,"masked",0.05,"incongruent",3.59,3.6,3.6,3.52,14.31,"<div style=""font-size:30px;"">dove</div>",0,-1.52192540322581,6.33327962813969,0
"308","2ee93of54vphdx349yk4o7k2ufhl92m4","condrepetition",623,"nola","animacy","repetition","k",1,30,1,"masked",0.05,"incongruent",3.59,3.6,3.6,3.52,14.31,"<div style=""font-size:30px;"">treadmill</div>",0,-1.52192540322581,6.43454651878745,0
"309","2ee93of54vphdx349yk4o7k2ufhl92m4","condrepetition",564,"nosm","animacy","repetition","k",1,31,1,"masked",0.05,"congruent",3.59,3.6,3.6,3.52,14.31,"<div style=""font-size:30px;"">lock</div>",0,-1.52192540322581,6.33505425149806,0
"310","2ee93of54vphdx349yk4o7k2ufhl92m4","condrepetition",635,"lila","animacy","repetition","l",1,32,1,"masked",0.05,"congruent",3.59,3.6,3.6,3.52,14.31,"<div style=""font-size:30px;"">hyena</div>",0,-1.52192540322581,6.45362499889269,0
"311","2ee93of54vphdx349yk4o7k2ufhl92m4","condrepetition",479,"lila","animacy","repetition","l",1,33,1,"masked",0.01,"congruent",3.59,3.6,3.6,3.52,14.31,"<div style=""font-size:30px;"">panda</div>",0,-1.52192540322581,6.17170059741091,0
"312","2ee93of54vphdx349yk4o7k2ufhl92m4","condrepetition",530,"lila","animacy","repetition","l",1,34,1,"masked",0.05,"congruent",3.59,3.6,3.6,3.52,14.31,"<div style=""font-size:30px;"">donkey</div>",0,-1.52192540322581,6.27287700654617,0
"313","2ee93of54vphdx349yk4o7k2ufhl92m4","condrepetition",633,"nosm","animacy","repetition","k",1,35,1,"masked",0.01,"congruent",3.59,3.6,3.6,3.52,14.31,"<div style=""font-size:30px;"">chalk</div>",0,-1.52192540322581,6.45047042214418,0
"314","2ee93of54vphdx349yk4o7k2ufhl92m4","condrepetition",628,"lila","animacy","repetition","l",1,36,1,"masked",0.05,"congruent",3.59,3.6,3.6,3.52,14.31,"<div style=""font-size:30px;"">ostrich</div>",0,-1.52192540322581,6.4425401664682,0
"315","2ee93of54vphdx349yk4o7k2ufhl92m4","condrepetition",636,"lism","animacy","repetition","l",1,37,1,"masked",0.05,"incongruent",3.59,3.6,3.6,3.52,14.31,"<div style=""font-size:30px;"">caterpillar</div>",0,-1.52192540322581,6.45519856334012,0
"316","2ee93of54vphdx349yk4o7k2ufhl92m4","condrepetition",669,"lism","animacy","repetition","l",1,38,1,"masked",0.05,"incongruent",3.59,3.6,3.6,3.52,14.31,"<div style=""font-size:30px;"">leaf</div>",0,-1.52192540322581,6.50578406012823,0
"317","2ee93of54vphdx349yk4o7k2ufhl92m4","condrepetition",638,"lila","animacy","repetition","l",1,39,1,"masked",0.05,"congruent",3.59,3.6,3.6,3.52,14.31,"<div style=""font-size:30px;"">tiger</div>",0,-1.52192540322581,6.45833828334479,0
"318","2ee93of54vphdx349yk4o7k2ufhl92m4","condrepetition",619,"nola","animacy","repetition","k",1,1,2,"masked",0.05,"incongruent",3.59,3.6,3.6,3.52,14.31,"<div style=""font-size:30px;"">cavern</div>",0,-0.521925403225806,6.4281052726846,0
"319","2ee93of54vphdx349yk4o7k2ufhl92m4","condrepetition",611,"nola","animacy","repetition","k",1,2,2,"masked",0.05,"incongruent",3.59,3.6,3.6,3.52,14.31,"<div style=""font-size:30px;"">cab</div>",0,-0.521925403225806,6.4150969591716,0
"320","2ee93of54vphdx349yk4o7k2ufhl92m4","condrepetition",575,"lism","animacy","repetition","l",1,3,2,"masked",0.05,"incongruent",3.59,3.6,3.6,3.52,14.31,"<div style=""font-size:30px;"">mushroom</div>",0,-0.521925403225806,6.35437004079735,0
"321","2ee93of54vphdx349yk4o7k2ufhl92m4","condrepetition",778,"nola","animacy","repetition","k",1,4,2,"masked",0.05,"incongruent",3.59,3.6,3.6,3.52,14.31,"<div style=""font-size:30px;"">escalator</div>",0,-0.521925403225806,6.65672652417839,0
"322","2ee93of54vphdx349yk4o7k2ufhl92m4","condrepetition",692,"nola","animacy","repetition","k",1,5,2,"masked",0.05,"incongruent",3.59,3.6,3.6,3.52,14.31,"<div style=""font-size:30px;"">motorcycle</div>",0,-0.521925403225806,6.53958595561767,0
"323","2ee93of54vphdx349yk4o7k2ufhl92m4","condrepetition",534,"lism","animacy","repetition","l",1,6,2,"masked",0.05,"incongruent",3.59,3.6,3.6,3.52,14.31,"<div style=""font-size:30px;"">moth</div>",0,-0.521925403225806,6.2803958389602,0
"324","2ee93of54vphdx349yk4o7k2ufhl92m4","condrepetition",587,"lism","animacy","repetition","l",1,7,2,"masked",0.05,"incongruent",3.59,3.6,3.6,3.52,14.31,"<div style=""font-size:30px;"">carrot</div>",0,-0.521925403225806,6.3750248198281,0
"325","2ee93of54vphdx349yk4o7k2ufhl92m4","condrepetition",793,"lism","animacy","repetition","l",1,8,2,"masked",0.05,"incongruent",3.59,3.6,3.6,3.52,14.31,"<div style=""font-size:30px;"">algae</div>",0,-0.521925403225806,6.67582322163485,0
"326","2ee93of54vphdx349yk4o7k2ufhl92m4","condrepetition",610,"nola","animacy","repetition","k",1,9,2,"masked",0.05,"incongruent",3.59,3.6,3.6,3.52,14.31,"<div style=""font-size:30px;"">luggage</div>",0,-0.521925403225806,6.41345895716736,0
"327","2ee93of54vphdx349yk4o7k2ufhl92m4","condrepetition",699,"nosm","animacy","repetition","k",1,10,2,"masked",0.05,"congruent",3.59,3.6,3.6,3.52,14.31,"<div style=""font-size:30px;"">postcard</div>",0,-0.521925403225806,6.54965074223381,0
"328","2ee93of54vphdx349yk4o7k2ufhl92m4","condrepetition",644,"lila","animacy","repetition","l",1,11,2,"masked",0.05,"congruent",3.59,3.6,3.6,3.52,14.31,"<div style=""font-size:30px;"">serpent</div>",0,-0.521925403225806,6.46769872610435,0
"329","2ee93of54vphdx349yk4o7k2ufhl92m4","condrepetition",687,"lila","animacy","repetition","l",1,12,2,"masked",0.05,"congruent",3.59,3.6,3.6,3.52,14.31,"<div style=""font-size:30px;"">mule</div>",0,-0.521925403225806,6.53233429222235,0
"330","2ee93of54vphdx349yk4o7k2ufhl92m4","condrepetition",845,"lila","animacy","repetition","l",1,13,2,"masked",0.05,"congruent",3.59,3.6,3.6,3.52,14.31,"<div style=""font-size:30px;"">oak</div>",0,-0.521925403225806,6.73933662735717,0
"331","2ee93of54vphdx349yk4o7k2ufhl92m4","condrepetition",696,"nosm","animacy","repetition","k",1,14,2,"masked",0.05,"congruent",3.59,3.6,3.6,3.52,14.31,"<div style=""font-size:30px;"">bandage</div>",0,-0.521925403225806,6.54534966033442,0
"332","2ee93of54vphdx349yk4o7k2ufhl92m4","condrepetition",649,"nosm","animacy","repetition","k",1,15,2,"masked",0.05,"congruent",3.59,3.6,3.6,3.52,14.31,"<div style=""font-size:30px;"">chopsticks</div>",0,-0.521925403225806,6.47543271670409,0
"333","2ee93of54vphdx349yk4o7k2ufhl92m4","condrepetition",815,"lism","animacy","repetition","l",1,16,2,"masked",0.05,"incongruent",3.59,3.6,3.6,3.52,14.31,"<div style=""font-size:30px;"">salamander</div>",0,-0.521925403225806,6.70318811324086,0
"334","2ee93of54vphdx349yk4o7k2ufhl92m4","condrepetition",674,"nosm","animacy","repetition","k",1,17,2,"masked",0.05,"congruent",3.59,3.6,3.6,3.52,14.31,"<div style=""font-size:30px;"">staple</div>",0,-0.521925403225806,6.51323011091231,0
"335","2ee93of54vphdx349yk4o7k2ufhl92m4","condrepetition",592,"lism","animacy","repetition","l",1,18,2,"masked",0.05,"incongruent",3.59,3.6,3.6,3.52,14.31,"<div style=""font-size:30px;"">potato</div>",0,-0.521925403225806,6.38350663488401,0
"336","2ee93of54vphdx349yk4o7k2ufhl92m4","condrepetition",664,"nosm","animacy","repetition","k",1,21,2,"masked",0.01,"congruent",3.59,3.6,3.6,3.52,14.31,"<div style=""font-size:30px;"">pin</div>",0,-0.521925403225806,6.49828214947643,0
"337","2ee93of54vphdx349yk4o7k2ufhl92m4","condrepetition",601,"lism","animacy","repetition","l",1,22,2,"masked",0.05,"incongruent",3.59,3.6,3.6,3.52,14.31,"<div style=""font-size:30px;"">crow</div>",0,-0.521925403225806,6.39859493453521,0
"338","2ee93of54vphdx349yk4o7k2ufhl92m4","condrepetition",656,"lism","animacy","repetition","l",1,23,2,"masked",0.05,"incongruent",3.59,3.6,3.6,3.52,14.31,"<div style=""font-size:30px;"">newt</div>",0,-0.521925403225806,6.48616078894409,0
"339","2ee93of54vphdx349yk4o7k2ufhl92m4","condrepetition",558,"lila","animacy","repetition","l",1,24,2,"masked",0.05,"congruent",3.59,3.6,3.6,3.52,14.31,"<div style=""font-size:30px;"">pig</div>",0,-0.521925403225806,6.32435896238131,0
"340","2ee93of54vphdx349yk4o7k2ufhl92m4","condrepetition",703,"lila","animacy","repetition","l",1,25,2,"masked",0.05,"congruent",3.59,3.6,3.6,3.52,14.31,"<div style=""font-size:30px;"">fir</div>",0,-0.521925403225806,6.55535689181067,0
"341","2ee93of54vphdx349yk4o7k2ufhl92m4","condrepetition",717,"nosm","animacy","repetition","k",1,26,2,"masked",0.05,"congruent",3.59,3.6,3.6,3.52,14.31,"<div style=""font-size:30px;"">coupon</div>",0,-0.521925403225806,6.57507584059962,0
"342","2ee93of54vphdx349yk4o7k2ufhl92m4","condrepetition",626,"lila","animacy","repetition","l",1,27,2,"masked",0.05,"congruent",3.59,3.6,3.6,3.52,14.31,"<div style=""font-size:30px;"">hawk</div>",0,-0.521925403225806,6.4393503711001,0
"343","2ee93of54vphdx349yk4o7k2ufhl92m4","condrepetition",700,"nola","animacy","repetition","k",1,28,2,"masked",0.05,"incongruent",3.59,3.6,3.6,3.52,14.31,"<div style=""font-size:30px;"">cannon</div>",0,-0.521925403225806,6.5510803350434,0
"344","2ee93of54vphdx349yk4o7k2ufhl92m4","condrepetition",699,"nosm","animacy","repetition","k",1,29,2,"masked",0.05,"congruent",3.59,3.6,3.6,3.52,14.31,"<div style=""font-size:30px;"">fork</div>",0,-0.521925403225806,6.54965074223381,0
"345","2ee93of54vphdx349yk4o7k2ufhl92m4","condrepetition",596,"lila","animacy","repetition","l",1,30,2,"masked",0.05,"congruent",3.59,3.6,3.6,3.52,14.31,"<div style=""font-size:30px;"">ape</div>",0,-0.521925403225806,6.39024066706535,0
"346","2ee93of54vphdx349yk4o7k2ufhl92m4","condrepetition",607,"nosm","animacy","repetition","k",1,31,2,"masked",0.01,"congruent",3.59,3.6,3.6,3.52,14.31,"<div style=""font-size:30px;"">nickel</div>",0,-0.521925403225806,6.4085287910595,0
"347","2ee93of54vphdx349yk4o7k2ufhl92m4","condrepetition",684,"nola","animacy","repetition","k",1,32,2,"masked",0.05,"incongruent",3.59,3.6,3.6,3.52,14.31,"<div style=""font-size:30px;"">patio</div>",0,-0.521925403225806,6.52795791762255,0
"348","2ee93of54vphdx349yk4o7k2ufhl92m4","condrepetition",557,"lism","animacy","repetition","l",1,33,2,"masked",0.05,"incongruent",3.59,3.6,3.6,3.52,14.31,"<div style=""font-size:30px;"">mosquito</div>",0,-0.521925403225806,6.32256523992728,0
"349","2ee93of54vphdx349yk4o7k2ufhl92m4","condrepetition",712,"lila","animacy","repetition","l",1,34,2,"masked",0.05,"congruent",3.59,3.6,3.6,3.52,14.31,"<div style=""font-size:30px;"">maple</div>",0,-0.521925403225806,6.56807791141198,0
"350","2ee93of54vphdx349yk4o7k2ufhl92m4","condrepetition",557,"lila","animacy","repetition","l",1,35,2,"masked",0.05,"congruent",3.59,3.6,3.6,3.52,14.31,"<div style=""font-size:30px;"">wolf</div>",0,-0.521925403225806,6.32256523992728,0
"351","2ee93of54vphdx349yk4o7k2ufhl92m4","condrepetition",677,"lila","animacy","repetition","l",1,36,2,"masked",0.01,"congruent",3.59,3.6,3.6,3.52,14.31,"<div style=""font-size:30px;"">flamingo</div>",0,-0.521925403225806,6.51767127291227,0
"352","2ee93of54vphdx349yk4o7k2ufhl92m4","condrepetition",643,"nosm","animacy","repetition","k",1,37,2,"masked",0.05,"congruent",3.59,3.6,3.6,3.52,14.31,"<div style=""font-size:30px;"">pliers</div>",0,-0.521925403225806,6.46614472423762,0
"353","2ee93of54vphdx349yk4o7k2ufhl92m4","condrepetition",611,"lism","animacy","repetition","l",1,38,2,"masked",0.05,"incongruent",3.59,3.6,3.6,3.52,14.31,"<div style=""font-size:30px;"">crab</div>",0,-0.521925403225806,6.4150969591716,0
"354","2ee93of54vphdx349yk4o7k2ufhl92m4","condrepetition",719,"nosm","animacy","repetition","k",1,39,2,"masked",0.05,"congruent",3.59,3.6,3.6,3.52,14.31,"<div style=""font-size:30px;"">card</div>",0,-0.521925403225806,6.57786135772105,0
"355","2ee93of54vphdx349yk4o7k2ufhl92m4","condrepetition",556,"nola","animacy","repetition","k",1,2,3,"masked",0.05,"incongruent",3.59,3.6,3.6,3.52,14.31,"<div style=""font-size:30px;"">keg</div>",0,0.478074596774194,6.32076829425058,0
"356","2ee93of54vphdx349yk4o7k2ufhl92m4","condrepetition",573,"lila","animacy","repetition","l",1,3,3,"masked",0.05,"congruent",3.59,3.6,3.6,3.52,14.31,"<div style=""font-size:30px;"">buffalo</div>",0,0.478074596774194,6.35088571671474,0
"357","2ee93of54vphdx349yk4o7k2ufhl92m4","condrepetition",557,"lila","animacy","repetition","l",1,4,3,"masked",0.05,"congruent",3.59,3.6,3.6,3.52,14.31,"<div style=""font-size:30px;"">coyote</div>",0,0.478074596774194,6.32256523992728,0
"358","2ee93of54vphdx349yk4o7k2ufhl92m4","condrepetition",634,"nola","animacy","repetition","k",1,5,3,"masked",0.05,"incongruent",3.59,3.6,3.6,3.52,14.31,"<div style=""font-size:30px;"">raft</div>",0,0.478074596774194,6.45204895443723,0
"359","2ee93of54vphdx349yk4o7k2ufhl92m4","condrepetition",598,"lila","animacy","repetition","l",1,6,3,"masked",0.01,"congruent",3.59,3.6,3.6,3.52,14.31,"<div style=""font-size:30px;"">elk</div>",0,0.478074596774194,6.39359075395063,0
"360","2ee93of54vphdx349yk4o7k2ufhl92m4","condrepetition",733,"lism","animacy","repetition","l",1,7,3,"masked",0.05,"incongruent",3.59,3.6,3.6,3.52,14.31,"<div style=""font-size:30px;"">lemon</div>",0,0.478074596774194,6.59714570188665,0
"361","2ee93of54vphdx349yk4o7k2ufhl92m4","condrepetition",541,"lism","animacy","repetition","l",1,8,3,"masked",0.05,"incongruent",3.59,3.6,3.6,3.52,14.31,"<div style=""font-size:30px;"">raspberry</div>",0,0.478074596774194,6.29341927884648,0
"362","2ee93of54vphdx349yk4o7k2ufhl92m4","condrepetition",584,"lila","animacy","repetition","l",1,9,3,"masked",0.05,"congruent",3.59,3.6,3.6,3.52,14.31,"<div style=""font-size:30px;"">lion</div>",0,0.478074596774194,6.36990098282823,0
"363","2ee93of54vphdx349yk4o7k2ufhl92m4","condrepetition",664,"lism","animacy","repetition","l",1,10,3,"masked",0.05,"incongruent",3.59,3.6,3.6,3.52,14.31,"<div style=""font-size:30px;"">spinach</div>",0,0.478074596774194,6.49828214947643,0
"364","2ee93of54vphdx349yk4o7k2ufhl92m4","condrepetition",690,"nosm","animacy","repetition","k",1,11,3,"masked",0.05,"congruent",3.59,3.6,3.6,3.52,14.31,"<div style=""font-size:30px;"">beaker</div>",0,0.478074596774194,6.5366915975913,0
"365","2ee93of54vphdx349yk4o7k2ufhl92m4","condrepetition",626,"lila","animacy","repetition","l",1,12,3,"masked",0.05,"congruent",3.59,3.6,3.6,3.52,14.31,"<div style=""font-size:30px;"">peacock</div>",0,0.478074596774194,6.4393503711001,0
"366","2ee93of54vphdx349yk4o7k2ufhl92m4","condrepetition",677,"nosm","animacy","repetition","k",1,13,3,"masked",0.05,"congruent",3.59,3.6,3.6,3.52,14.31,"<div style=""font-size:30px;"">softball</div>",0,0.478074596774194,6.51767127291227,0
"367","2ee93of54vphdx349yk4o7k2ufhl92m4","condrepetition",736,"nosm","animacy","repetition","k",1,14,3,"masked",0.05,"congruent",3.59,3.6,3.6,3.52,14.31,"<div style=""font-size:30px;"">comb</div>",0,0.478074596774194,6.60123011872888,0
"368","2ee93of54vphdx349yk4o7k2ufhl92m4","condrepetition",698,"nosm","animacy","repetition","k",1,15,3,"masked",0.05,"congruent",3.59,3.6,3.6,3.52,14.31,"<div style=""font-size:30px;"">flask</div>",0,0.478074596774194,6.54821910276237,0
"369","2ee93of54vphdx349yk4o7k2ufhl92m4","condrepetition",796,"nosm","animacy","repetition","k",1,17,3,"masked",0.05,"congruent",3.59,3.6,3.6,3.52,14.31,"<div style=""font-size:30px;"">dice</div>",0,0.478074596774194,6.67959918584438,0
"370","2ee93of54vphdx349yk4o7k2ufhl92m4","condrepetition",850,"nola","animacy","repetition","k",1,18,3,"masked",0.05,"incongruent",3.59,3.6,3.6,3.52,14.31,"<div style=""font-size:30px;"">locomotive</div>",0,0.478074596774194,6.74523634948436,0
"371","2ee93of54vphdx349yk4o7k2ufhl92m4","condrepetition",781,"lism","animacy","repetition","l",1,19,3,"masked",0.05,"incongruent",3.59,3.6,3.6,3.52,14.31,"<div style=""font-size:30px;"">avocado</div>",0,0.478074596774194,6.66057514983969,0
"372","2ee93of54vphdx349yk4o7k2ufhl92m4","condrepetition",676,"lism","animacy","repetition","l",1,20,3,"masked",0.05,"incongruent",3.59,3.6,3.6,3.52,14.31,"<div style=""font-size:30px;"">celery</div>",0,0.478074596774194,6.51619307604296,0
"373","2ee93of54vphdx349yk4o7k2ufhl92m4","condrepetition",814,"nola","animacy","repetition","k",1,21,3,"masked",0.05,"incongruent",3.59,3.6,3.6,3.52,14.31,"<div style=""font-size:30px;"">limousine</div>",0,0.478074596774194,6.70196036600254,0
"374","2ee93of54vphdx349yk4o7k2ufhl92m4","condrepetition",642,"lila","animacy","repetition","l",1,22,3,"masked",0.01,"congruent",3.59,3.6,3.6,3.52,14.31,"<div style=""font-size:30px;"">elephant</div>",0,0.478074596774194,6.46458830368996,0
"375","2ee93of54vphdx349yk4o7k2ufhl92m4","condrepetition",725,"nola","animacy","repetition","k",1,23,3,"masked",0.05,"incongruent",3.59,3.6,3.6,3.52,14.31,"<div style=""font-size:30px;"">pier</div>",0,0.478074596774194,6.58617165485467,0
"376","2ee93of54vphdx349yk4o7k2ufhl92m4","condrepetition",654,"nola","animacy","repetition","k",1,24,3,"masked",0.01,"incongruent",3.59,3.6,3.6,3.52,14.31,"<div style=""font-size:30px;"">jeep</div>",0,0.478074596774194,6.4831073514572,0
"377","2ee93of54vphdx349yk4o7k2ufhl92m4","condrepetition",642,"nosm","animacy","repetition","k",1,25,3,"masked",0.05,"congruent",3.59,3.6,3.6,3.52,14.31,"<div style=""font-size:30px;"">penny</div>",0,0.478074596774194,6.46458830368996,0
"378","2ee93of54vphdx349yk4o7k2ufhl92m4","condrepetition",606,"nosm","animacy","repetition","k",1,26,3,"masked",0.05,"congruent",3.59,3.6,3.6,3.52,14.31,"<div style=""font-size:30px;"">brick</div>",0,0.478074596774194,6.40687998606931,0
"379","2ee93of54vphdx349yk4o7k2ufhl92m4","condrepetition",653,"nosm","animacy","repetition","k",1,27,3,"masked",0.05,"congruent",3.59,3.6,3.6,3.52,14.31,"<div style=""font-size:30px;"">button</div>",0,0.478074596774194,6.48157712927643,0
"380","2ee93of54vphdx349yk4o7k2ufhl92m4","condrepetition",594,"lila","animacy","repetition","l",1,28,3,"masked",0.05,"congruent",3.59,3.6,3.6,3.52,14.31,"<div style=""font-size:30px;"">kangaroo</div>",0,0.478074596774194,6.38687931936265,0
"381","2ee93of54vphdx349yk4o7k2ufhl92m4","condrepetition",643,"lila","animacy","repetition","l",1,29,3,"masked",0.05,"congruent",3.59,3.6,3.6,3.52,14.31,"<div style=""font-size:30px;"">antelope</div>",0,0.478074596774194,6.46614472423762,0
"382","2ee93of54vphdx349yk4o7k2ufhl92m4","condrepetition",591,"lism","animacy","repetition","l",1,30,3,"masked",0.05,"incongruent",3.59,3.6,3.6,3.52,14.31,"<div style=""font-size:30px;"">cabbage</div>",0,0.478074596774194,6.3818160174061,0
"383","2ee93of54vphdx349yk4o7k2ufhl92m4","condrepetition",776,"nola","animacy","repetition","k",1,31,3,"masked",0.05,"incongruent",3.59,3.6,3.6,3.52,14.31,"<div style=""font-size:30px;"">dungeon</div>",0,0.478074596774194,6.65415252018322,0
"384","2ee93of54vphdx349yk4o7k2ufhl92m4","condrepetition",611,"lila","animacy","repetition","l",1,32,3,"masked",0.05,"congruent",3.59,3.6,3.6,3.52,14.31,"<div style=""font-size:30px;"">cow</div>",0,0.478074596774194,6.4150969591716,0
"385","2ee93of54vphdx349yk4o7k2ufhl92m4","condrepetition",608,"lism","animacy","repetition","l",1,33,3,"masked",0.05,"incongruent",3.59,3.6,3.6,3.52,14.31,"<div style=""font-size:30px;"">melon</div>",0,0.478074596774194,6.41017488196617,0
"386","2ee93of54vphdx349yk4o7k2ufhl92m4","condrepetition",574,"lism","animacy","repetition","l",1,34,3,"masked",0.05,"incongruent",3.59,3.6,3.6,3.52,14.31,"<div style=""font-size:30px;"">goldfish</div>",0,0.478074596774194,6.35262939631957,0
"387","2ee93of54vphdx349yk4o7k2ufhl92m4","condrepetition",642,"nola","animacy","repetition","k",1,35,3,"masked",0.05,"incongruent",3.59,3.6,3.6,3.52,14.31,"<div style=""font-size:30px;"">vault</div>",0,0.478074596774194,6.46458830368996,0
"388","2ee93of54vphdx349yk4o7k2ufhl92m4","condrepetition",612,"nosm","animacy","repetition","k",1,36,3,"masked",0.05,"congruent",3.59,3.6,3.6,3.52,14.31,"<div style=""font-size:30px;"">glove</div>",0,0.478074596774194,6.41673228251233,0
"389","2ee93of54vphdx349yk4o7k2ufhl92m4","condrepetition",648,"lism","animacy","repetition","l",1,37,3,"masked",0.01,"incongruent",3.59,3.6,3.6,3.52,14.31,"<div style=""font-size:30px;"">ant</div>",0,0.478074596774194,6.47389069635227,0
"390","2ee93of54vphdx349yk4o7k2ufhl92m4","condrepetition",645,"lila","animacy","repetition","l",1,38,3,"masked",0.05,"congruent",3.59,3.6,3.6,3.52,14.31,"<div style=""font-size:30px;"">octopus</div>",0,0.478074596774194,6.46925031679577,0
"391","2ee93of54vphdx349yk4o7k2ufhl92m4","condrepetition",652,"nola","animacy","repetition","k",1,39,3,"masked",0.05,"incongruent",3.59,3.6,3.6,3.52,14.31,"<div style=""font-size:30px;"">fireplace</div>",0,0.478074596774194,6.48004456192665,0
"392","2ee93of54vphdx349yk4o7k2ufhl92m4","condrepetition",824,"lila","animacy","repetition","l",1,1,4,"masked",0.05,"congruent",3.59,3.6,3.6,3.52,14.31,"<div style=""font-size:30px;"">primate</div>",0,1.47807459677419,6.71417052990947,0
"393","2ee93of54vphdx349yk4o7k2ufhl92m4","condrepetition",640,"lila","animacy","repetition","l",1,2,4,"masked",0.05,"congruent",3.59,3.6,3.6,3.52,14.31,"<div style=""font-size:30px;"">ram</div>",0,1.47807459677419,6.46146817635372,0
"394","2ee93of54vphdx349yk4o7k2ufhl92m4","condrepetition",787,"nola","animacy","repetition","k",1,3,4,"masked",0.05,"incongruent",3.59,3.6,3.6,3.52,14.31,"<div style=""font-size:30px;"">balcony</div>",0,1.47807459677419,6.6682282484174,0
"395","2ee93of54vphdx349yk4o7k2ufhl92m4","condrepetition",698,"nosm","animacy","repetition","k",1,4,4,"masked",0.01,"congruent",3.59,3.6,3.6,3.52,14.31,"<div style=""font-size:30px;"">ticket</div>",0,1.47807459677419,6.54821910276237,0
"396","2ee93of54vphdx349yk4o7k2ufhl92m4","condrepetition",830,"lism","animacy","repetition","l",1,5,4,"masked",0.05,"incongruent",3.59,3.6,3.6,3.52,14.31,"<div style=""font-size:30px;"">radish</div>",0,1.47807459677419,6.72142570079064,0
"397","2ee93of54vphdx349yk4o7k2ufhl92m4","condrepetition",657,"lila","animacy","repetition","l",1,6,4,"masked",0.05,"congruent",3.59,3.6,3.6,3.52,14.31,"<div style=""font-size:30px;"">dolphin</div>",0,1.47807459677419,6.48768401848461,0
"398","2ee93of54vphdx349yk4o7k2ufhl92m4","condrepetition",593,"lila","animacy","repetition","l",1,7,4,"masked",0.05,"congruent",3.59,3.6,3.6,3.52,14.31,"<div style=""font-size:30px;"">moose</div>",0,1.47807459677419,6.38519439899773,0
"399","2ee93of54vphdx349yk4o7k2ufhl92m4","condrepetition",613,"nola","animacy","repetition","k",1,8,4,"masked",0.05,"incongruent",3.59,3.6,3.6,3.52,14.31,"<div style=""font-size:30px;"">motel</div>",0,1.47807459677419,6.41836493593621,0
"400","2ee93of54vphdx349yk4o7k2ufhl92m4","condrepetition",615,"nosm","animacy","repetition","k",1,9,4,"masked",0.05,"congruent",3.59,3.6,3.6,3.52,14.31,"<div style=""font-size:30px;"">calculator</div>",0,1.47807459677419,6.42162226780652,0
"401","2ee93of54vphdx349yk4o7k2ufhl92m4","condrepetition",738,"nola","animacy","repetition","k",1,10,4,"masked",0.05,"incongruent",3.59,3.6,3.6,3.52,14.31,"<div style=""font-size:30px;"">bicycle</div>",0,1.47807459677419,6.60394382460047,0
"402","2ee93of54vphdx349yk4o7k2ufhl92m4","condrepetition",699,"lism","animacy","repetition","l",1,11,4,"masked",0.05,"incongruent",3.59,3.6,3.6,3.52,14.31,"<div style=""font-size:30px;"">plum</div>",0,1.47807459677419,6.54965074223381,0
"403","2ee93of54vphdx349yk4o7k2ufhl92m4","condrepetition",728,"nola","animacy","repetition","k",1,12,4,"masked",0.05,"incongruent",3.59,3.6,3.6,3.52,14.31,"<div style=""font-size:30px;"">oven</div>",0,1.47807459677419,6.59030104819669,0
"404","2ee93of54vphdx349yk4o7k2ufhl92m4","condrepetition",693,"lism","animacy","repetition","l",1,14,4,"masked",0.05,"incongruent",3.59,3.6,3.6,3.52,14.31,"<div style=""font-size:30px;"">cauliflower</div>",0,1.47807459677419,6.5410299991899,0
"405","2ee93of54vphdx349yk4o7k2ufhl92m4","condrepetition",672,"nola","animacy","repetition","k",1,15,4,"masked",0.05,"incongruent",3.59,3.6,3.6,3.52,14.31,"<div style=""font-size:30px;"">shield</div>",0,1.47807459677419,6.51025834052315,0
"406","2ee93of54vphdx349yk4o7k2ufhl92m4","condrepetition",620,"lism","animacy","repetition","l",1,16,4,"masked",0.05,"incongruent",3.59,3.6,3.6,3.52,14.31,"<div style=""font-size:30px;"">berry</div>",0,1.47807459677419,6.42971947803914,0
"407","2ee93of54vphdx349yk4o7k2ufhl92m4","condrepetition",756,"lila","animacy","repetition","l",1,17,4,"masked",0.05,"congruent",3.59,3.6,3.6,3.52,14.31,"<div style=""font-size:30px;"">vulture</div>",0,1.47807459677419,6.62804137617953,0
"408","2ee93of54vphdx349yk4o7k2ufhl92m4","condrepetition",657,"nosm","animacy","repetition","k",1,18,4,"masked",0.05,"congruent",3.59,3.6,3.6,3.52,14.31,"<div style=""font-size:30px;"">mitten</div>",0,1.47807459677419,6.48768401848461,0
"409","2ee93of54vphdx349yk4o7k2ufhl92m4","condrepetition",661,"nola","animacy","repetition","k",1,19,4,"masked",0.05,"incongruent",3.59,3.6,3.6,3.52,14.31,"<div style=""font-size:30px;"">garage</div>",0,1.47807459677419,6.49375383985169,0
"410","2ee93of54vphdx349yk4o7k2ufhl92m4","condrepetition",662,"lila","animacy","repetition","l",1,20,4,"masked",0.05,"congruent",3.59,3.6,3.6,3.52,14.31,"<div style=""font-size:30px;"">cheetah</div>",0,1.47807459677419,6.49526555593701,0
"411","2ee93of54vphdx349yk4o7k2ufhl92m4","condrepetition",698,"lila","animacy","repetition","l",1,21,4,"masked",0.01,"congruent",3.59,3.6,3.6,3.52,14.31,"<div style=""font-size:30px;"">beast</div>",0,1.47807459677419,6.54821910276237,0
"412","2ee93of54vphdx349yk4o7k2ufhl92m4","condrepetition",640,"lism","animacy","repetition","l",1,22,4,"masked",0.05,"incongruent",3.59,3.6,3.6,3.52,14.31,"<div style=""font-size:30px;"">cherry</div>",0,1.47807459677419,6.46146817635372,0
"413","2ee93of54vphdx349yk4o7k2ufhl92m4","condrepetition",653,"lism","animacy","repetition","l",1,23,4,"masked",0.05,"incongruent",3.59,3.6,3.6,3.52,14.31,"<div style=""font-size:30px;"">wasp</div>",0,1.47807459677419,6.48157712927643,0
